"Time (s)","Acceleration x (m/s^2)","Acceleration y (m/s^2)","Acceleration z (m/s^2)"
2.047521600E-2,-8.505401611E-1,-2.059013397E-1,9.865906715E0
2.247594500E-2,-9.223662019E-1,-2.537853718E-1,9.861118317E0
2.447724700E-2,-9.271546006E-1,-2.442085743E-1,9.813234329E0
2.647927800E-2,-8.792705536E-1,-2.106897533E-1,9.813234329E0
2.848214300E-2,-9.702502489E-1,-2.873041928E-1,9.827599525E0
3.048589300E-2,-9.750386477E-1,-2.777273953E-1,9.813234329E0
3.249058000E-2,-9.032126069E-1,-2.489969730E-1,9.750985146E0
3.449620500E-2,-9.415197968E-1,-2.825157940E-1,9.722254753E0
3.650271600E-2,-9.558850527E-1,-2.777273953E-1,9.770138741E0
3.851005900E-2,-9.606734514E-1,-3.208230138E-1,9.770138741E0
4.051849700E-2,-9.271546006E-1,-3.399766386E-1,9.722254753E0
4.252750700E-2,-9.127894044E-1,-3.447650373E-1,9.717466354E0
4.453693400E-2,-9.750386477E-1,-3.734954596E-1,9.731831551E0
4.654657000E-2,-9.558850527E-1,-3.830722570E-1,9.722254753E0
4.855625700E-2,-9.606734514E-1,-3.591302633E-1,9.731831551E0
5.056360100E-2,-9.989806414E-1,-4.405331016E-1,9.698312759E0
5.256912200E-2,-9.941922426E-1,-4.213795066E-1,9.698312759E0
5.457193400E-2,-9.846154451E-1,-4.501099288E-1,9.712677956E0
5.657495500E-2,-1.003769040E0,-4.644751251E-1,9.722254753E0
5.857823600E-2,-1.037287831E0,-4.357447028E-1,9.688735962E0
6.058188200E-2,-1.032499433E0,-4.692635238E-1,9.669582367E0
6.258594500E-2,-1.008557439E0,-4.548983276E-1,9.621698380E0
6.459047600E-2,-1.046864748E0,-4.548983276E-1,9.616909981E0
6.659547600E-2,-1.104325533E0,-4.740519226E-1,9.636063576E0
6.860094500E-2,-1.070806742E0,-4.357447028E-1,9.640851974E0
7.060688200E-2,-1.075595140E0,-4.213795066E-1,9.636063576E0
7.261328900E-2,-1.094748735E0,-4.548983276E-1,9.636063576E0
7.462011100E-2,-1.123479128E0,-4.261679053E-1,9.703101158E0
7.662724700E-2,-1.109113932E0,-4.261679053E-1,9.669582367E0
7.863464300E-2,-1.104325533E0,-4.070142806E-1,9.660005569E0
8.064219500E-2,-1.123479128E0,-3.974374831E-1,9.640851974E0
8.264979900E-2,-1.128267527E0,-3.974374831E-1,9.626486778E0
8.466282000E-2,-1.094748735E0,-3.734954596E-1,9.602544785E0
8.666334100E-2,-1.113902330E0,-3.447650373E-1,9.583391190E0
8.866401800E-2,-1.133055925E0,-3.782838583E-1,9.592967987E0
9.066505900E-2,-1.080383539E0,-3.399766386E-1,9.645640373E0
9.266662200E-2,-1.109113932E0,-3.639186621E-1,9.712677956E0
9.466886100E-2,-1.089960337E0,-3.447650373E-1,9.741408348E0
9.667188200E-2,-1.104325533E0,-3.208230138E-1,9.703101158E0
9.867573600E-2,-1.075595140E0,-3.399766386E-1,9.640851974E0
1.006804760E-1,-1.070806742E0,-3.160346150E-1,9.640851974E0
1.026861010E-1,-1.089960337E0,-3.447650373E-1,9.688735962E0
1.046925590E-1,-1.066018343E0,-3.303998411E-1,9.707889557E0
1.066997990E-1,-1.018134236E0,-3.160346150E-1,9.707889557E0
1.087077160E-1,-1.037287831E0,-3.495534360E-1,9.640851974E0
1.107161530E-1,-1.003769040E0,-3.256114423E-1,9.664793968E0
1.127250070E-1,-1.051653147E0,-3.399766386E-1,9.717466354E0
1.147341220E-1,-1.032499433E0,-3.495534360E-1,9.750985146E0
1.167433410E-1,-1.008557439E0,-2.920926213E-1,9.722254753E0
1.187520390E-1,-9.941922426E-1,-3.543418646E-1,9.674370766E0
1.207575590E-1,-9.989806414E-1,-3.399766386E-1,9.693524361E0
1.227603720E-1,-1.022922635E0,-3.399766386E-1,9.736619949E0
1.247633930E-1,-9.894038439E-1,-3.303998411E-1,9.798869133E0
1.267667260E-1,-9.606734514E-1,-3.351882398E-1,9.760561943E0
1.287704240E-1,-9.415197968E-1,-3.447650373E-1,9.727043152E0
1.307745390E-1,-9.463081956E-1,-3.734954596E-1,9.679159164E0
1.327791220E-1,-9.415197968E-1,-3.303998411E-1,9.707889557E0
1.347841740E-1,-9.463081956E-1,-3.926490843E-1,9.770138741E0
1.367896950E-1,-9.415197968E-1,-3.351882398E-1,9.779715538E0
1.387956840E-1,-9.080010056E-1,-3.830722570E-1,9.755773544E0
1.408020910E-1,-8.888474107E-1,-3.495534360E-1,9.727043152E0
1.428088610E-1,-9.223662019E-1,-3.639186621E-1,9.784503937E0
1.448159450E-1,-9.558850527E-1,-3.926490843E-1,9.818022728E0
1.468232890E-1,-8.840589523E-1,-3.543418646E-1,9.779715538E0
1.488307890E-1,-8.601169586E-1,-3.543418646E-1,9.765350342E0
1.508383410E-1,-8.840589523E-1,-3.830722570E-1,9.712677956E0
1.528513090E-1,-9.223662019E-1,-3.543418646E-1,9.703101158E0
1.548518300E-1,-8.840589523E-1,-3.447650373E-1,9.750985146E0
1.568525070E-1,-8.984242082E-1,-3.399766386E-1,9.841964722E0
1.588535490E-1,-8.984242082E-1,-3.495534360E-1,9.861118317E0
1.608551110E-1,-8.792705536E-1,-3.495534360E-1,9.779715538E0
1.628573510E-1,-8.888474107E-1,-3.303998411E-1,9.765350342E0
1.648603720E-1,-9.127894044E-1,-3.351882398E-1,9.765350342E0
1.668642260E-1,-9.271546006E-1,-3.399766386E-1,9.784503937E0
1.688689660E-1,-8.888474107E-1,-2.968810201E-1,9.770138741E0
1.708745910E-1,-9.127894044E-1,-3.399766386E-1,9.765350342E0
1.728810490E-1,-9.319429994E-1,-3.064578176E-1,9.731831551E0
1.748882890E-1,-8.888474107E-1,-2.920926213E-1,9.750985146E0
1.768962050E-1,-9.223662019E-1,-3.064578176E-1,9.794080734E0
1.789046430E-1,-9.223662019E-1,-2.873041928E-1,9.794080734E0
1.809134970E-1,-9.127894044E-1,-3.256114423E-1,9.741408348E0
1.829226110E-1,-9.367313981E-1,-3.016694188E-1,9.717466354E0
1.849318300E-1,-9.654618502E-1,-2.968810201E-1,9.755773544E0
1.869404760E-1,-9.510966539E-1,-3.208230138E-1,9.774927139E0
1.889460490E-1,-9.463081956E-1,-2.920926213E-1,9.774927139E0
1.909515700E-1,-9.463081956E-1,-3.351882398E-1,9.774927139E0
1.929543820E-1,-9.510966539E-1,-3.495534360E-1,9.765350342E0
1.949574030E-1,-9.510966539E-1,-3.208230138E-1,9.731831551E0
1.969607360E-1,-9.702502489E-1,-3.543418646E-1,9.760561943E0
1.989644340E-1,-9.702502489E-1,-3.303998411E-1,9.741408348E0
2.009685490E-1,-9.415197968E-1,-3.351882398E-1,9.712677956E0
2.029731320E-1,-9.750386477E-1,-3.495534360E-1,9.693524361E0
2.049781840E-1,-9.846154451E-1,-3.543418646E-1,9.703101158E0
2.069837050E-1,-9.750386477E-1,-3.495534360E-1,9.712677956E0
2.089896950E-1,-9.941922426E-1,-3.591302633E-1,9.722254753E0
2.109961010E-1,-9.846154451E-1,-3.639186621E-1,9.741408348E0
2.130028720E-1,-1.003769040E0,-3.878606856E-1,9.727043152E0
2.150099550E-1,-9.989806414E-1,-3.878606856E-1,9.703101158E0
2.170172990E-1,-9.798270464E-1,-3.878606856E-1,9.683947563E0
2.190247990E-1,-1.003769040E0,-4.022258818E-1,9.679159164E0
2.210323510E-1,-9.941922426E-1,-3.974374831E-1,9.683947563E0
2.230453200E-1,-1.037287831E0,-4.118026793E-1,9.669582367E0
2.250458410E-1,-9.798270464E-1,-3.734954596E-1,9.712677956E0
2.270465180E-1,-1.013345838E0,-3.974374831E-1,9.712677956E0
2.290475590E-1,-1.022922635E0,-3.974374831E-1,9.750985146E0
2.310491220E-1,-1.003769040E0,-3.878606856E-1,9.731831551E0
2.330513610E-1,-1.018134236E0,-4.165911078E-1,9.698312759E0
2.350543820E-1,-1.032499433E0,-3.926490843E-1,9.679159164E0
2.370582360E-1,-1.018134236E0,-3.878606856E-1,9.703101158E0
2.390629760E-1,-1.022922635E0,-4.022258818E-1,9.698312759E0
2.410686010E-1,-9.941922426E-1,-3.591302633E-1,9.698312759E0
2.430750590E-1,-1.003769040E0,-3.926490843E-1,9.683947563E0
2.450822990E-1,-1.008557439E0,-3.591302633E-1,9.698312759E0
2.470902160E-1,-1.008557439E0,-3.543418646E-1,9.727043152E0
2.490986530E-1,-9.941922426E-1,-3.687070608E-1,9.731831551E0
2.511075070E-1,-9.941922426E-1,-3.399766386E-1,9.736619949E0
2.531166220E-1,-1.003769040E0,-3.591302633E-1,9.698312759E0
2.551258410E-1,-9.894038439E-1,-3.351882398E-1,9.707889557E0
2.571344860E-1,-1.003769040E0,-3.399766386E-1,9.717466354E0
2.591400590E-1,-1.013345838E0,-3.303998411E-1,9.736619949E0
2.611456320E-1,-9.846154451E-1,-3.303998411E-1,9.741408348E0
2.631511530E-1,-9.846154451E-1,-3.256114423E-1,9.736619949E0
2.651539660E-1,-9.798270464E-1,-3.112462163E-1,9.731831551E0
2.671569860E-1,-9.989806414E-1,-3.160346150E-1,9.731831551E0
2.691602680E-1,-9.798270464E-1,-3.016694188E-1,9.731831551E0
2.711639140E-1,-9.750386477E-1,-3.303998411E-1,9.736619949E0
2.731679760E-1,-9.702502489E-1,-3.112462163E-1,9.727043152E0
2.751725070E-1,-9.750386477E-1,-3.303998411E-1,9.722254753E0
2.771775070E-1,-9.415197968E-1,-3.303998411E-1,9.750985146E0
2.791829760E-1,-9.654618502E-1,-3.256114423E-1,9.779715538E0
2.811889140E-1,-9.415197968E-1,-3.351882398E-1,9.770138741E0
2.831953200E-1,-9.223662019E-1,-3.303998411E-1,9.760561943E0
2.852021430E-1,-9.510966539E-1,-3.303998411E-1,9.731831551E0
2.872092780E-1,-9.223662019E-1,-3.208230138E-1,9.712677956E0
2.892166740E-1,-9.319429994E-1,-3.351882398E-1,9.750985146E0
2.912242260E-1,-9.415197968E-1,-3.399766386E-1,9.770138741E0
2.932318300E-1,-9.271546006E-1,-3.399766386E-1,9.770138741E0
2.952448510E-1,-9.271546006E-1,-3.351882398E-1,9.779715538E0
2.972453720E-1,-9.127894044E-1,-3.591302633E-1,9.760561943E0
2.992458930E-1,-9.606734514E-1,-3.495534360E-1,9.779715538E0
3.012467780E-1,-8.792705536E-1,-3.495534360E-1,9.798869133E0
3.032482360E-1,-9.080010056E-1,-3.495534360E-1,9.774927139E0
3.052503720E-1,-9.223662019E-1,-3.639186621E-1,9.746196747E0
3.072541740E-1,-9.175778031E-1,-3.543418646E-1,9.712677956E0
3.092579760E-1,-9.175778031E-1,-3.351882398E-1,9.727043152E0
3.112626640E-1,-9.415197968E-1,-3.734954596E-1,9.798869133E0
3.132682360E-1,-9.319429994E-1,-3.399766386E-1,9.774927139E0
3.152746430E-1,-8.649053574E-1,-3.543418646E-1,9.755773544E0
3.172818300E-1,-8.984242082E-1,-3.351882398E-1,9.755773544E0
3.192896950E-1,-9.223662019E-1,-3.543418646E-1,9.765350342E0
3.212981320E-1,-9.127894044E-1,-3.256114423E-1,9.765350342E0
3.233069860E-1,-8.936358094E-1,-3.447650373E-1,9.794080734E0
3.253161010E-1,-9.080010056E-1,-3.495534360E-1,9.765350342E0
3.273253200E-1,-8.936358094E-1,-3.160346150E-1,9.741408348E0
3.293340700E-1,-9.223662019E-1,-3.591302633E-1,9.755773544E0
3.313396430E-1,-9.032126069E-1,-3.016694188E-1,9.779715538E0
3.333451640E-1,-9.127894044E-1,-3.303998411E-1,9.760561943E0
3.353479760E-1,-8.792705536E-1,-3.016694188E-1,9.755773544E0
3.373509970E-1,-8.553285599E-1,-2.968810201E-1,9.741408348E0
3.393542780E-1,-9.319429994E-1,-3.160346150E-1,9.784503937E0
3.413579240E-1,-9.080010056E-1,-2.825157940E-1,9.779715538E0
3.433619860E-1,-8.936358094E-1,-3.016694188E-1,9.808445930E0
3.453667780E-1,-8.984242082E-1,-2.729389966E-1,9.846753120E0
3.473740700E-1,-8.744821548E-1,-2.920926213E-1,9.861118317E0
3.493816740E-1,-8.840589523E-1,-2.920926213E-1,9.765350342E0
3.513894860E-1,-8.696937561E-1,-2.873041928E-1,9.731831551E0
3.533974030E-1,-9.175778031E-1,-2.681505978E-1,9.750985146E0
3.554107360E-1,-9.080010056E-1,-2.633621991E-1,9.798869133E0
3.574116740E-1,-8.649053574E-1,-2.585737705E-1,9.808445930E0
3.594127680E-1,-8.696937561E-1,-2.777273953E-1,9.803657532E0
3.614141740E-1,-8.696937561E-1,-2.920926213E-1,9.755773544E0
3.634160490E-1,-8.744821548E-1,-2.920926213E-1,9.798869133E0
3.654185490E-1,-8.984242082E-1,-3.208230138E-1,9.846753120E0
3.674217780E-1,-8.984242082E-1,-3.303998411E-1,9.851541519E0
3.694257890E-1,-8.601169586E-1,-3.208230138E-1,9.789292336E0
3.714305800E-1,-8.649053574E-1,-3.447650373E-1,9.741408348E0
3.734365180E-1,-9.367313981E-1,-3.687070608E-1,9.803657532E0
3.754424550E-1,-8.936358094E-1,-3.974374831E-1,9.813234329E0
3.774491220E-1,-8.122329116E-1,-3.591302633E-1,9.803657532E0
3.794564140E-1,-8.649053574E-1,-4.357447028E-1,9.755773544E0
3.814642780E-1,-8.313865662E-1,-4.309563041E-1,9.731831551E0
3.834725590E-1,-8.457517624E-1,-4.357447028E-1,9.736619949E0
3.854811530E-1,-8.505401611E-1,-4.884171486E-1,9.856329918E0
3.874899030E-1,-9.080010056E-1,-5.363011956E-1,9.827599525E0
3.894987050E-1,-8.361749649E-1,-5.698199868E-1,9.707889557E0
3.915059450E-1,-8.265981078E-1,-5.746083856E-1,9.674370766E0
3.935114660E-1,-8.649053574E-1,-5.602431893E-1,9.755773544E0
3.955142780E-1,-8.840589523E-1,-6.033388376E-1,9.707889557E0
3.975172990E-1,-8.505401611E-1,-5.171475410E-1,9.669582367E0
3.995205800E-1,-8.170213103E-1,-5.458779931E-1,9.655217171E0
4.015242260E-1,-7.260416746E-1,-4.070142806E-1,9.717466354E0
4.035282890E-1,-1.094748735E0,-6.895300746E-1,9.707889557E0
4.055328200E-1,-1.080383539E0,-3.974374831E-1,9.607333183E0
4.075378200E-1,-8.840589523E-1,-4.309563041E-1,9.688735962E0
4.095433410E-1,-9.941922426E-1,-4.501099288E-1,1.009096146E1
4.115502680E-1,-1.123479128E0,-3.782838583E-1,1.012448025E1
4.135571950E-1,-1.037287831E0,-5.315127969E-1,9.554660797E0
4.155644340E-1,-8.218097091E-1,-2.442085743E-1,9.343970299E0
4.175718820E-1,-1.176151633E0,-3.591302633E-1,9.607333183E0
4.195794860E-1,-1.310226917E0,-3.543418646E-1,9.693524361E0
4.215871430E-1,-9.032126069E-1,-1.771709323E-1,9.693524361E0
4.235946430E-1,-1.147421122E0,-2.346317619E-1,9.688735962E0
4.256001640E-1,-1.200093627E0,-2.920926213E-1,9.487623215E0
4.276111010E-1,-1.080383539E0,-1.244984865E-1,9.583391190E0
4.296112570E-1,-1.113902330E0,-1.675941199E-1,9.918579102E0
4.316116220E-1,-1.329380512E0,-3.639186621E-1,9.798869133E0
4.336123510E-1,-1.094748735E0,-1.053448766E-1,9.401431084E0
4.356136530E-1,-1.080383539E0,-2.394201756E-1,9.320028305E0
4.376156840E-1,-1.281496406E0,-1.771709323E-1,9.712677956E0
4.396185490E-1,-1.353322506E0,-2.489969730E-1,9.885060310E0
4.416214140E-1,-1.156997919E0,-2.059013397E-1,9.688735962E0
4.436252680E-1,-1.027711034E0,-2.106897533E-1,9.525930405E0
4.456301640E-1,-1.233612418E0,-2.825157940E-1,9.631275177E0
4.476361010E-1,-1.319803715E0,-3.256114423E-1,9.727043152E0
4.496429760E-1,-1.185728431E0,-2.681505978E-1,9.707889557E0
4.516507360E-1,-1.152209520E0,-2.920926213E-1,9.592967987E0
4.536592260E-1,-1.185728431E0,-3.734954596E-1,9.511565208E0
4.556683410E-1,-1.171363235E0,-3.064578176E-1,9.497200012E0
4.576778720E-1,-1.156997919E0,-4.213795066E-1,9.621698380E0
4.596876640E-1,-1.176151633E0,-3.974374831E-1,9.731831551E0
4.616975070E-1,-1.133055925E0,-4.309563041E-1,9.645640373E0
4.637055280E-1,-1.056441545E0,-4.261679053E-1,9.569025993E0
4.657110490E-1,-1.061229944E0,-4.453215301E-1,9.616909981E0
4.677138610E-1,-1.166574836E0,-5.075707436E-1,9.631275177E0
4.697168820E-1,-1.104325533E0,-4.836287498E-1,9.501988411E0
4.717201640E-1,-1.027711034E0,-4.884171486E-1,9.521142006E0
4.737238090E-1,-1.099537134E0,-5.554547906E-1,9.660005569E0
4.757278720E-1,-1.118690729E0,-5.841852427E-1,9.789292336E0
4.777324030E-1,-1.003769040E0,-5.363011956E-1,9.765350342E0
4.797369340E-1,-1.042076349E0,-5.793967843E-1,9.693524361E0
4.817419860E-1,-1.027711034E0,-5.410895944E-1,9.679159164E0
4.837475590E-1,-1.089960337E0,-5.746083856E-1,9.679159164E0
4.857536530E-1,-1.008557439E0,-5.506663918E-1,9.674370766E0
4.877602160E-1,-1.003769040E0,-5.410895944E-1,9.631275177E0
4.897671950E-1,-1.008557439E0,-5.267243981E-1,9.592967987E0
4.917744860E-1,-9.367313981E-1,-5.219359994E-1,9.607333183E0
4.937820390E-1,-9.798270464E-1,-4.836287498E-1,9.688735962E0
4.957897470E-1,-9.798270464E-1,-4.596867263E-1,9.717466354E0
4.977975070E-1,-9.702502489E-1,-4.405331016E-1,9.717466354E0
4.998106840E-1,-9.367313981E-1,-4.070142806E-1,9.707889557E0
5.018108410E-1,-9.654618502E-1,-4.165911078E-1,9.683947563E0
5.038112050E-1,-1.003769040E0,-3.830722570E-1,9.741408348E0
5.058119340E-1,-1.008557439E0,-3.687070608E-1,9.760561943E0
5.078132360E-1,-9.798270464E-1,-3.112462163E-1,9.770138741E0
5.098152680E-1,-9.271546006E-1,-2.968810201E-1,9.750985146E0
5.118181320E-1,-1.003769040E0,-2.968810201E-1,9.760561943E0
5.138218820E-1,-9.750386477E-1,-2.729389966E-1,9.755773544E0
5.158265700E-1,-9.846154451E-1,-2.585737705E-1,9.784503937E0
5.178312570E-1,-9.846154451E-1,-2.106897533E-1,9.789292336E0
5.198369340E-1,-9.846154451E-1,-2.202665508E-1,9.779715538E0
5.218435490E-1,-9.606734514E-1,-1.867477298E-1,9.750985146E0
5.238509970E-1,-9.319429994E-1,-1.819593310E-1,9.755773544E0
5.258591740E-1,-9.798270464E-1,-1.867477298E-1,9.765350342E0
5.278679240E-1,-9.558850527E-1,-1.771709323E-1,9.789292336E0
5.298771430E-1,-9.223662019E-1,-1.628057212E-1,9.779715538E0
5.318866220E-1,-9.175778031E-1,-1.628057212E-1,9.755773544E0
5.338962050E-1,-9.175778031E-1,-1.819593310E-1,9.746196747E0
5.359051110E-1,-9.271546006E-1,-1.771709323E-1,9.736619949E0
5.379106320E-1,-9.175778031E-1,-2.059013397E-1,9.765350342E0
5.399134450E-1,-9.223662019E-1,-2.154781520E-1,9.784503937E0
5.419164660E-1,-9.319429994E-1,-2.489969730E-1,9.794080734E0
5.439197470E-1,-9.127894044E-1,-2.442085743E-1,9.822811127E0
5.459233930E-1,-8.984242082E-1,-2.777273953E-1,9.841964722E0
5.479274550E-1,-9.127894044E-1,-3.016694188E-1,9.832387924E0
5.499319860E-1,-8.984242082E-1,-3.064578176E-1,9.798869133E0
5.519369860E-1,-8.696937561E-1,-3.256114423E-1,9.774927139E0
5.539425070E-1,-8.840589523E-1,-3.591302633E-1,9.731831551E0
5.559484970E-1,-9.032126069E-1,-3.687070608E-1,9.770138741E0
5.579549030E-1,-8.936358094E-1,-3.974374831E-1,9.750985146E0
5.599616740E-1,-8.888474107E-1,-3.878606856E-1,9.755773544E0
5.619687570E-1,-8.888474107E-1,-4.213795066E-1,9.765350342E0
5.639770390E-1,-8.984242082E-1,-4.213795066E-1,9.760561943E0
5.659806840E-1,-9.127894044E-1,-4.453215301E-1,9.741408348E0
5.679846950E-1,-9.080010056E-1,-4.596867263E-1,9.717466354E0
5.699891220E-1,-9.223662019E-1,-4.836287498E-1,9.717466354E0
5.719939660E-1,-9.223662019E-1,-4.596867263E-1,9.717466354E0
5.739992260E-1,-9.415197968E-1,-4.740519226E-1,9.741408348E0
5.760049030E-1,-9.415197968E-1,-4.788403511E-1,9.755773544E0
5.780109970E-1,-9.415197968E-1,-4.548983276E-1,9.760561943E0
5.800174550E-1,-9.558850527E-1,-4.788403511E-1,9.717466354E0
5.820242260E-1,-9.463081956E-1,-4.644751251E-1,9.712677956E0
5.840309970E-1,-9.846154451E-1,-4.453215301E-1,9.741408348E0
5.860379760E-1,-9.846154451E-1,-4.405331016E-1,9.727043152E0
5.880451110E-1,-9.894038439E-1,-4.309563041E-1,9.674370766E0
5.900522990E-1,-9.989806414E-1,-4.261679053E-1,9.674370766E0
5.920649030E-1,-1.013345838E0,-3.926490843E-1,9.707889557E0
5.940658930E-1,-1.008557439E0,-3.782838583E-1,9.707889557E0
5.960670390E-1,-1.008557439E0,-3.591302633E-1,9.703101158E0
5.980684970E-1,-1.037287831E0,-3.782838583E-1,9.688735962E0
6.000704240E-1,-1.032499433E0,-3.351882398E-1,9.683947563E0
6.020729760E-1,-1.037287831E0,-3.447650373E-1,9.679159164E0
6.040762050E-1,-1.037287831E0,-3.256114423E-1,9.674370766E0
6.060802160E-1,-1.046864748E0,-3.016694188E-1,9.693524361E0
6.080850070E-1,-1.051653147E0,-3.208230138E-1,9.707889557E0
6.100905800E-1,-1.051653147E0,-2.968810201E-1,9.717466354E0
6.120969340E-1,-1.061229944E0,-2.968810201E-1,9.717466354E0
6.141039660E-1,-1.051653147E0,-2.968810201E-1,9.707889557E0
6.161116220E-1,-1.042076349E0,-2.825157940E-1,9.717466354E0
6.181197990E-1,-1.022922635E0,-2.681505978E-1,9.731831551E0
6.201283410E-1,-1.056441545E0,-2.968810201E-1,9.707889557E0
6.221368820E-1,-1.032499433E0,-2.537853718E-1,9.712677956E0
6.241455280E-1,-1.018134236E0,-2.777273953E-1,9.707889557E0
6.261514660E-1,-1.008557439E0,-2.777273953E-1,9.717466354E0
6.281575070E-1,-1.008557439E0,-2.920926213E-1,9.727043152E0
6.301636010E-1,-9.941922426E-1,-2.825157940E-1,9.703101158E0
6.321697470E-1,-9.941922426E-1,-2.920926213E-1,9.683947563E0
6.341813090E-1,-9.846154451E-1,-2.920926213E-1,9.698312759E0
6.361822990E-1,-9.846154451E-1,-3.303998411E-1,9.717466354E0
6.381834450E-1,-9.606734514E-1,-3.112462163E-1,9.727043152E0
6.401849030E-1,-9.606734514E-1,-3.208230138E-1,9.741408348E0
6.421868300E-1,-9.367313981E-1,-3.495534360E-1,9.755773544E0
6.441893820E-1,-9.654618502E-1,-3.591302633E-1,9.760561943E0
6.461926110E-1,-9.367313981E-1,-3.639186621E-1,9.746196747E0
6.481966220E-1,-9.463081956E-1,-3.639186621E-1,9.755773544E0
6.502014140E-1,-9.367313981E-1,-3.591302633E-1,9.750985146E0
6.522069860E-1,-9.223662019E-1,-3.734954596E-1,9.741408348E0
6.542133410E-1,-9.223662019E-1,-3.639186621E-1,9.765350342E0
6.562203720E-1,-9.175778031E-1,-3.734954596E-1,9.774927139E0
6.582280280E-1,-9.223662019E-1,-3.878606856E-1,9.746196747E0
6.602362050E-1,-9.032126069E-1,-3.591302633E-1,9.746196747E0
6.622447470E-1,-9.032126069E-1,-3.543418646E-1,9.750985146E0
6.642535490E-1,-9.319429994E-1,-3.639186621E-1,9.755773544E0
6.662624550E-1,-8.936358094E-1,-3.447650373E-1,9.731831551E0
6.682709970E-1,-9.127894044E-1,-3.495534360E-1,9.750985146E0
6.702765700E-1,-9.367313981E-1,-3.543418646E-1,9.731831551E0
6.722820910E-1,-9.223662019E-1,-3.399766386E-1,9.731831551E0
6.742849030E-1,-9.319429994E-1,-3.303998411E-1,9.755773544E0
6.762879240E-1,-9.223662019E-1,-3.447650373E-1,9.774927139E0
6.782912570E-1,-9.415197968E-1,-3.303998411E-1,9.765350342E0
6.802949550E-1,-9.702502489E-1,-3.064578176E-1,9.736619949E0
6.822990700E-1,-9.558850527E-1,-3.208230138E-1,9.727043152E0
6.843036530E-1,-9.654618502E-1,-3.016694188E-1,9.731831551E0
6.863087050E-1,-9.941922426E-1,-3.064578176E-1,9.717466354E0
6.883142260E-1,-9.558850527E-1,-2.825157940E-1,9.698312759E0
6.903202160E-1,-9.989806414E-1,-2.968810201E-1,9.727043152E0
6.923266220E-1,-9.941922426E-1,-2.777273953E-1,9.727043152E0
6.943333930E-1,-9.846154451E-1,-2.920926213E-1,9.712677956E0
6.963439660E-1,-9.750386477E-1,-2.777273953E-1,9.722254753E0
6.983545390E-1,-9.894038439E-1,-3.064578176E-1,9.698312759E0
7.003597470E-1,-9.989806414E-1,-3.064578176E-1,9.655217171E0
7.023703720E-1,-9.798270464E-1,-3.064578176E-1,9.674370766E0
7.043708410E-1,-1.013345838E0,-3.351882398E-1,9.664793968E0
7.063714660E-1,-1.027711034E0,-3.399766386E-1,9.674370766E0
7.083724550E-1,-1.008557439E0,-3.543418646E-1,9.650428772E0
7.103739660E-1,-1.037287831E0,-3.639186621E-1,9.688735962E0
7.123761530E-1,-1.046864748E0,-3.782838583E-1,9.645640373E0
7.143791220E-1,-1.070806742E0,-4.070142806E-1,9.607333183E0
7.163829240E-1,-1.089960337E0,-4.022258818E-1,9.588179588E0
7.183876110E-1,-1.080383539E0,-4.357447028E-1,9.583391190E0
7.203931840E-1,-1.094748735E0,-4.357447028E-1,9.674370766E0
7.223995910E-1,-1.094748735E0,-4.644751251E-1,9.693524361E0
7.244067780E-1,-1.085171938E0,-4.788403511E-1,9.674370766E0
7.264146430E-1,-1.094748735E0,-4.644751251E-1,9.607333183E0
7.284230800E-1,-1.094748735E0,-4.788403511E-1,9.621698380E0
7.304319340E-1,-1.118690729E0,-4.548983276E-1,9.741408348E0
7.324410490E-1,-1.056441545E0,-4.644751251E-1,9.865906715E0
7.344519340E-1,-9.750386477E-1,-4.453215301E-1,9.889848709E0
7.364628200E-1,-8.840589523E-1,-4.165911078E-1,9.913790703E0
7.384650590E-1,-8.792705536E-1,-4.213795066E-1,9.841964722E0
7.404674030E-1,-8.409633636E-1,-3.687070608E-1,9.770138741E0
7.424699550E-1,-7.595604658E-1,-3.351882398E-1,9.736619949E0
7.444738090E-1,-7.787141204E-1,-3.016694188E-1,9.750985146E0
7.464777160E-1,-7.547720671E-1,-2.729389966E-1,9.779715538E0
7.484820390E-1,-7.164648771E-1,-2.442085743E-1,9.813234329E0
7.504868300E-1,-6.829460263E-1,-2.250549644E-1,9.861118317E0
7.524920910E-1,-7.116764784E-1,-2.298433632E-1,9.904213905E0
7.544978200E-1,-7.116764784E-1,-1.867477298E-1,9.894637108E0
7.565039660E-1,-6.877344251E-1,-1.723825186E-1,9.875483513E0
7.585105280E-1,-7.068880796E-1,-1.771709323E-1,9.909002304E0
7.605174030E-1,-7.164648771E-1,-1.675941199E-1,9.913790703E0
7.625245390E-1,-7.068880796E-1,-1.388636976E-1,9.937732697E0
7.645318820E-1,-7.020996213E-1,-1.628057212E-1,9.980828285E0
7.665393300E-1,-6.637924314E-1,-1.580173075E-1,9.995193481E0
7.685468300E-1,-6.590040326E-1,-1.867477298E-1,1.002392387E1
7.705538090E-1,-6.542156339E-1,-1.819593310E-1,1.002871227E1
7.725617260E-1,-6.542156339E-1,-2.154781520E-1,1.001913548E1
7.745717260E-1,-6.494272351E-1,-2.346317619E-1,1.000477028E1
7.765704240E-1,-6.350619793E-1,-2.537853718E-1,9.952097893E0
7.785693820E-1,-6.302735806E-1,-2.681505978E-1,9.918579102E0
7.805688610E-1,-6.637924314E-1,-3.160346150E-1,9.894637108E0
7.825690700E-1,-6.542156339E-1,-3.256114423E-1,9.865906715E0
7.845701640E-1,-6.733692288E-1,-3.399766386E-1,9.880271912E0
7.865722990E-1,-6.925228238E-1,-3.591302633E-1,9.851541519E0
7.885755800E-1,-7.068880796E-1,-3.926490843E-1,9.803657532E0
7.905800590E-1,-7.451952696E-1,-4.261679053E-1,9.750985146E0
7.925857360E-1,-7.930793166E-1,-4.501099288E-1,9.712677956E0
7.945925590E-1,-8.409633636E-1,-4.644751251E-1,9.722254753E0
7.966004240E-1,-9.127894044E-1,-4.932055473E-1,9.731831551E0
7.986091740E-1,-9.558850527E-1,-5.123591423E-1,9.746196747E0
8.006186530E-1,-9.989806414E-1,-5.027823448E-1,9.765350342E0
8.026281320E-1,-1.046864748E0,-5.171475410E-1,9.760561943E0
8.046380280E-1,-1.085171938E0,-5.363011956E-1,9.736619949E0
8.066481320E-1,-1.113902330E0,-5.171475410E-1,9.712677956E0
8.086555280E-1,-1.161786318E0,-5.027823448E-1,9.655217171E0
8.106629760E-1,-1.147421122E0,-4.932055473E-1,9.578602791E0
8.126702160E-1,-1.176151633E0,-4.740519226E-1,9.545084000E0
8.146757890E-1,-1.238400817E0,-4.548983276E-1,9.506776810E0
8.166813090E-1,-1.233612418E0,-4.596867263E-1,9.525930405E0
8.186922470E-1,-1.257554412E0,-4.501099288E-1,9.545084000E0
8.206924030E-1,-1.271919608E0,-4.261679053E-1,9.578602791E0
8.226927680E-1,-1.291073322E0,-3.974374831E-1,9.573814392E0
8.246934970E-1,-1.291073322E0,-4.022258818E-1,9.597756386E0
8.266947990E-1,-1.295861721E0,-3.830722570E-1,9.607333183E0
8.286968300E-1,-1.281496406E0,-3.639186621E-1,9.530718803E0
8.306996950E-1,-1.243189216E0,-3.543418646E-1,9.458892822E0
8.327034450E-1,-1.262342811E0,-3.495534360E-1,9.406219482E0
8.347081320E-1,-1.295861721E0,-3.399766386E-1,9.434949875E0
8.367137570E-1,-1.319803715E0,-3.303998411E-1,9.492411613E0
8.387202680E-1,-1.286284804E0,-3.351882398E-1,9.559449196E0
8.407267780E-1,-1.295861721E0,-3.591302633E-1,9.621698380E0
8.427340700E-1,-1.295861721E0,-3.495534360E-1,9.650428772E0
8.447420390E-1,-1.281496406E0,-3.639186621E-1,9.626486778E0
8.467505800E-1,-1.267131209E0,-3.639186621E-1,9.612121582E0
8.487595390E-1,-1.262342811E0,-3.830722570E-1,9.588179588E0
8.507687570E-1,-1.233612418E0,-3.734954596E-1,9.549872398E0
8.527780800E-1,-1.200093627E0,-3.734954596E-1,9.549872398E0
8.547866740E-1,-1.195305228E0,-3.878606856E-1,9.592967987E0
8.567921950E-1,-1.161786318E0,-3.878606856E-1,9.621698380E0
8.587950070E-1,-1.137844324E0,-3.734954596E-1,9.660005569E0
8.607980280E-1,-1.089960337E0,-3.926490843E-1,9.669582367E0
8.628013610E-1,-1.085171938E0,-4.070142806E-1,9.640851974E0
8.648050590E-1,-1.080383539E0,-4.118026793E-1,9.655217171E0
8.668091740E-1,-1.061229944E0,-4.165911078E-1,9.655217171E0
8.688137570E-1,-1.051653147E0,-4.165911078E-1,9.679159164E0
8.708188090E-1,-1.022922635E0,-4.165911078E-1,9.707889557E0
8.728243300E-1,-1.003769040E0,-4.309563041E-1,9.703101158E0
8.748303200E-1,-9.606734514E-1,-4.357447028E-1,9.727043152E0
8.768367260E-1,-9.558850527E-1,-4.357447028E-1,9.731831551E0
8.788434970E-1,-9.367313981E-1,-4.165911078E-1,9.712677956E0
8.808505800E-1,-9.319429994E-1,-4.309563041E-1,9.741408348E0
8.828579240E-1,-9.127894044E-1,-4.405331016E-1,9.722254753E0
8.848654240E-1,-9.175778031E-1,-4.453215301E-1,9.707889557E0
8.868729760E-1,-9.175778031E-1,-4.357447028E-1,9.736619949E0
8.888859450E-1,-8.984242082E-1,-4.213795066E-1,9.789292336E0
8.908864660E-1,-9.080010056E-1,-4.261679053E-1,9.837176323E0
8.928871430E-1,-8.888474107E-1,-4.070142806E-1,9.846753120E0
8.948881840E-1,-8.792705536E-1,-3.926490843E-1,9.837176323E0
8.968897470E-1,-8.744821548E-1,-3.782838583E-1,9.813234329E0
8.988919860E-1,-8.601169586E-1,-3.687070608E-1,9.784503937E0
9.008950070E-1,-8.792705536E-1,-3.830722570E-1,9.760561943E0
9.028988610E-1,-8.457517624E-1,-3.399766386E-1,9.727043152E0
9.049036010E-1,-8.649053574E-1,-3.208230138E-1,9.712677956E0
9.069092260E-1,-8.649053574E-1,-3.208230138E-1,9.755773544E0
9.089156840E-1,-8.792705536E-1,-3.160346150E-1,9.784503937E0
9.109229240E-1,-8.984242082E-1,-2.968810201E-1,9.851541519E0
9.129308410E-1,-8.840589523E-1,-3.064578176E-1,9.846753120E0
9.149397990E-1,-8.888474107E-1,-2.873041928E-1,9.846753120E0
9.169487570E-1,-9.032126069E-1,-2.729389966E-1,9.818022728E0
9.189579240E-1,-9.032126069E-1,-2.633621991E-1,9.779715538E0
9.209671430E-1,-9.223662019E-1,-2.442085743E-1,9.779715538E0
9.229752160E-1,-9.127894044E-1,-2.585737705E-1,9.770138741E0
9.249807360E-1,-9.127894044E-1,-2.394201756E-1,9.765350342E0
9.269835490E-1,-9.080010056E-1,-2.346317619E-1,9.770138741E0
9.289865700E-1,-9.223662019E-1,-2.585737705E-1,9.798869133E0
9.309899030E-1,-9.223662019E-1,-2.537853718E-1,9.784503937E0
9.329936010E-1,-9.319429994E-1,-2.537853718E-1,9.779715538E0
9.349977160E-1,-9.223662019E-1,-2.537853718E-1,9.770138741E0
9.370022990E-1,-9.319429994E-1,-2.729389966E-1,9.755773544E0
9.390073510E-1,-9.606734514E-1,-2.825157940E-1,9.741408348E0
9.410128720E-1,-9.510966539E-1,-2.968810201E-1,9.741408348E0
9.430188610E-1,-9.367313981E-1,-3.016694188E-1,9.746196747E0
9.450252680E-1,-9.798270464E-1,-3.256114423E-1,9.750985146E0
9.470320390E-1,-9.654618502E-1,-3.112462163E-1,9.722254753E0
9.490391220E-1,-9.606734514E-1,-3.447650373E-1,9.693524361E0
9.510464660E-1,-9.894038439E-1,-3.256114423E-1,9.703101158E0
9.530539660E-1,-9.989806414E-1,-3.591302633E-1,9.722254753E0
9.550614660E-1,-9.798270464E-1,-3.495534360E-1,9.707889557E0
9.570743820E-1,-9.750386477E-1,-3.639186621E-1,9.712677956E0
9.590750070E-1,-9.941922426E-1,-3.974374831E-1,9.736619949E0
9.610757890E-1,-9.941922426E-1,-4.118026793E-1,9.722254753E0
9.630769340E-1,-9.989806414E-1,-3.830722570E-1,9.669582367E0
9.650786010E-1,-1.027711034E0,-4.118026793E-1,9.597756386E0
9.670809450E-1,-1.027711034E0,-3.974374831E-1,9.640851974E0
9.690840180E-1,-1.061229944E0,-4.165911078E-1,9.727043152E0
9.710879240E-1,-1.046864748E0,-4.261679053E-1,9.727043152E0
9.730926640E-1,-9.941922426E-1,-4.070142806E-1,9.674370766E0
9.750982360E-1,-1.008557439E0,-4.070142806E-1,9.698312759E0
9.771046430E-1,-1.109113932E0,-4.261679053E-1,9.741408348E0
9.791117780E-1,-1.032499433E0,-3.830722570E-1,9.727043152E0
9.811195910E-1,-1.013345838E0,-4.022258818E-1,9.683947563E0
9.831279240E-1,-1.027711034E0,-3.974374831E-1,9.631275177E0
9.851366740E-1,-9.989806414E-1,-3.830722570E-1,9.621698380E0
9.871456840E-1,-9.894038439E-1,-3.687070608E-1,9.703101158E0
9.891547990E-1,-1.037287831E0,-4.070142806E-1,9.741408348E0
9.911643820E-1,-1.013345838E0,-3.734954596E-1,9.631275177E0
9.931739660E-1,-9.319429994E-1,-3.399766386E-1,9.631275177E0
9.951748510E-1,-9.989806414E-1,-3.830722570E-1,9.784503937E0
9.971758930E-1,-1.051653147E0,-3.495534360E-1,9.841964722E0
9.991772470E-1,-9.606734514E-1,-3.639186621E-1,9.669582367E0
1.001179070E0,-8.888474107E-1,-3.208230138E-1,9.636063576E0
1.003181518E0,-1.003769040E0,-3.687070608E-1,9.770138741E0
1.005184695E0,-1.018134236E0,-3.447650373E-1,9.837176323E0
1.007188653E0,-9.080010056E-1,-3.064578176E-1,9.827599525E0
1.009193445E0,-9.175778031E-1,-3.399766386E-1,9.750985146E0
1.011199070E0,-9.463081956E-1,-3.160346150E-1,9.655217171E0
1.013205476E0,-9.415197968E-1,-3.208230138E-1,9.717466354E0
1.015212611E0,-9.558850527E-1,-3.208230138E-1,9.818022728E0
1.017220372E0,-9.606734514E-1,-3.208230138E-1,9.827599525E0
1.019228653E0,-9.080010056E-1,-3.016694188E-1,9.712677956E0
1.021236934E0,-8.792705536E-1,-2.920926213E-1,9.703101158E0
1.023245476E0,-9.367313981E-1,-2.968810201E-1,9.818022728E0
1.025254174E0,-9.846154451E-1,-3.256114423E-1,9.794080734E0
1.027260164E0,-8.984242082E-1,-2.777273953E-1,9.703101158E0
1.029267351E0,-8.553285599E-1,-2.920926213E-1,9.664793968E0
1.031274539E0,-9.175778031E-1,-3.160346150E-1,9.722254753E0
1.033280216E0,-9.415197968E-1,-3.064578176E-1,9.779715538E0
1.035285736E0,-9.032126069E-1,-3.303998411E-1,9.798869133E0
1.037296674E0,-8.888474107E-1,-3.112462163E-1,9.798869133E0
1.039296830E0,-9.127894044E-1,-3.447650373E-1,9.808445930E0
1.041297195E0,-9.175778031E-1,-3.495534360E-1,9.803657532E0
1.043297924E0,-9.032126069E-1,-3.447650373E-1,9.822811127E0
1.045299226E0,-9.367313981E-1,-3.687070608E-1,9.765350342E0
1.047301257E0,-8.936358094E-1,-3.399766386E-1,9.770138741E0
1.049304122E0,-8.744821548E-1,-3.447650373E-1,9.794080734E0
1.051307872E0,-8.984242082E-1,-3.639186621E-1,9.770138741E0
1.053312559E0,-9.175778031E-1,-3.591302633E-1,9.717466354E0
1.055318184E0,-9.175778031E-1,-3.639186621E-1,9.679159164E0
1.057325841E0,-8.888474107E-1,-3.495534360E-1,9.717466354E0
1.059333497E0,-9.271546006E-1,-3.639186621E-1,9.808445930E0
1.061341778E0,-9.127894044E-1,-3.639186621E-1,9.798869133E0
1.063350580E0,-9.032126069E-1,-3.734954596E-1,9.727043152E0
1.065359747E0,-9.319429994E-1,-3.687070608E-1,9.712677956E0
1.067369591E0,-9.558850527E-1,-3.734954596E-1,9.746196747E0
1.069372455E0,-9.558850527E-1,-3.495534360E-1,9.803657532E0
1.071375684E0,-9.319429994E-1,-3.591302633E-1,9.774927139E0
1.073379382E0,-9.367313981E-1,-3.495534360E-1,9.717466354E0
1.075383601E0,-9.510966539E-1,-3.591302633E-1,9.703101158E0
1.077388393E0,-9.558850527E-1,-3.447650373E-1,9.736619949E0
1.079393757E0,-9.750386477E-1,-3.495534360E-1,9.760561943E0
1.081399643E0,-9.415197968E-1,-3.782838583E-1,9.741408348E0
1.083406049E0,-9.510966539E-1,-3.543418646E-1,9.703101158E0
1.085412924E0,-9.558850527E-1,-3.495534360E-1,9.712677956E0
1.087420164E0,-1.013345838E0,-3.495534360E-1,9.722254753E0
1.089427716E0,-9.798270464E-1,-3.495534360E-1,9.736619949E0
1.091435476E0,-9.654618502E-1,-3.543418646E-1,9.722254753E0
1.093443341E0,-9.750386477E-1,-3.591302633E-1,9.679159164E0
1.095451726E0,-9.798270464E-1,-3.447650373E-1,9.688735962E0
1.097460111E0,-9.989806414E-1,-3.495534360E-1,9.717466354E0
1.099463236E0,-9.894038439E-1,-3.495534360E-1,9.717466354E0
1.101466414E0,-9.702502489E-1,-3.495534360E-1,9.698312759E0
1.103469747E0,-9.894038439E-1,-3.543418646E-1,9.703101158E0
1.105473341E0,-1.003769040E0,-3.639186621E-1,9.717466354E0
1.107477247E0,-9.894038439E-1,-3.591302633E-1,9.731831551E0
1.109481518E0,-9.846154451E-1,-3.687070608E-1,9.736619949E0
1.111486205E0,-9.798270464E-1,-3.495534360E-1,9.722254753E0
1.113491309E0,-9.654618502E-1,-3.351882398E-1,9.731831551E0
1.115496830E0,-9.750386477E-1,-3.495534360E-1,9.736619949E0
1.117502768E0,-1.008557439E0,-3.543418646E-1,9.693524361E0
1.119509070E0,-9.654618502E-1,-3.399766386E-1,9.688735962E0
1.121515684E0,-9.846154451E-1,-3.782838583E-1,9.669582367E0
1.123522559E0,-9.989806414E-1,-3.447650373E-1,9.703101158E0
1.125529643E0,-1.018134236E0,-3.687070608E-1,9.679159164E0
1.127536882E0,-1.027711034E0,-3.687070608E-1,9.664793968E0
1.129544174E0,-9.989806414E-1,-3.734954596E-1,9.679159164E0
1.131548757E0,-1.008557439E0,-3.830722570E-1,9.741408348E0
1.133553497E0,-1.018134236E0,-4.022258818E-1,9.760561943E0
1.135558393E0,-9.941922426E-1,-3.830722570E-1,9.760561943E0
1.137563497E0,-9.894038439E-1,-3.878606856E-1,9.712677956E0
1.139568809E0,-1.008557439E0,-3.878606856E-1,9.679159164E0
1.141574330E0,-9.989806414E-1,-3.830722570E-1,9.712677956E0
1.143580059E0,-9.989806414E-1,-4.022258818E-1,9.722254753E0
1.145585945E0,-9.989806414E-1,-3.878606856E-1,9.712677956E0
1.147591986E0,-1.008557439E0,-3.830722570E-1,9.707889557E0
1.149598132E0,-9.750386477E-1,-3.830722570E-1,9.683947563E0
1.151604382E0,-9.894038439E-1,-3.878606856E-1,9.717466354E0
1.153610684E0,-9.941922426E-1,-3.734954596E-1,9.727043152E0
1.155617039E0,-9.846154451E-1,-3.734954596E-1,9.703101158E0
1.157628809E0,-9.798270464E-1,-3.687070608E-1,9.683947563E0
1.159629591E0,-1.008557439E0,-3.591302633E-1,9.707889557E0
1.161630528E0,-9.989806414E-1,-3.543418646E-1,9.722254753E0
1.163631466E0,-9.941922426E-1,-3.591302633E-1,9.727043152E0
1.165632924E0,-9.846154451E-1,-3.543418646E-1,9.688735962E0
1.167635059E0,-9.941922426E-1,-3.543418646E-1,9.669582367E0
1.169637976E0,-1.013345838E0,-3.399766386E-1,9.703101158E0
1.171641726E0,-1.013345838E0,-3.303998411E-1,9.755773544E0
1.173646361E0,-1.027711034E0,-3.591302633E-1,9.750985146E0
1.175651882E0,-1.013345838E0,-3.064578176E-1,9.717466354E0
1.177658236E0,-9.989806414E-1,-3.160346150E-1,9.736619949E0
1.179665372E0,-1.032499433E0,-3.399766386E-1,9.750985146E0
1.181673184E0,-9.989806414E-1,-3.399766386E-1,9.731831551E0
1.183681570E0,-9.846154451E-1,-3.112462163E-1,9.679159164E0
1.185690424E0,-9.798270464E-1,-3.064578176E-1,9.703101158E0
1.187699591E0,-9.941922426E-1,-3.160346150E-1,9.731831551E0
1.189708914E0,-9.941922426E-1,-3.351882398E-1,9.727043152E0
1.191715528E0,-9.606734514E-1,-3.208230138E-1,9.736619949E0
1.193722195E0,-9.894038439E-1,-3.399766386E-1,9.717466354E0
1.195734278E0,-9.750386477E-1,-3.447650373E-1,9.722254753E0
1.197734955E0,-9.606734514E-1,-3.495534360E-1,9.746196747E0
1.199735789E0,-9.654618502E-1,-3.687070608E-1,9.770138741E0
1.201736622E0,-9.750386477E-1,-3.543418646E-1,9.736619949E0
1.203737976E0,-9.510966539E-1,-3.591302633E-1,9.712677956E0
1.205740007E0,-9.606734514E-1,-3.830722570E-1,9.727043152E0
1.207742820E0,-9.894038439E-1,-3.782838583E-1,9.746196747E0
1.209746518E0,-9.558850527E-1,-3.926490843E-1,9.727043152E0
1.211751153E0,-9.415197968E-1,-3.878606856E-1,9.717466354E0
1.213756726E0,-9.558850527E-1,-3.926490843E-1,9.765350342E0
1.215763184E0,-9.654618502E-1,-3.878606856E-1,9.727043152E0
1.217770424E0,-9.510966539E-1,-3.782838583E-1,9.741408348E0
1.219778393E0,-9.463081956E-1,-3.926490843E-1,9.722254753E0
1.221786934E0,-9.750386477E-1,-3.878606856E-1,9.722254753E0
1.223795893E0,-9.702502489E-1,-3.830722570E-1,9.731831551E0
1.225805111E0,-9.463081956E-1,-3.926490843E-1,9.703101158E0
1.227814434E0,-9.846154451E-1,-3.782838583E-1,9.707889557E0
1.229823705E0,-9.798270464E-1,-3.782838583E-1,9.707889557E0
1.231829226E0,-9.846154451E-1,-3.878606856E-1,9.736619949E0
1.233832039E0,-9.702502489E-1,-3.878606856E-1,9.703101158E0
1.235835059E0,-9.846154451E-1,-3.734954596E-1,9.727043152E0
1.237838393E0,-9.702502489E-1,-3.591302633E-1,9.727043152E0
1.239842091E0,-9.750386477E-1,-3.543418646E-1,9.736619949E0
1.241846205E0,-9.750386477E-1,-3.447650373E-1,9.741408348E0
1.243850789E0,-9.798270464E-1,-3.591302633E-1,9.741408348E0
1.245855841E0,-9.798270464E-1,-3.447650373E-1,9.698312759E0
1.247861882E0,-9.750386477E-1,-3.543418646E-1,9.717466354E0
1.249868028E0,-9.846154451E-1,-3.447650373E-1,9.731831551E0
1.251874591E0,-1.008557439E0,-3.399766386E-1,9.712677956E0
1.253881518E0,-9.750386477E-1,-3.399766386E-1,9.698312759E0
1.255888705E0,-9.798270464E-1,-3.303998411E-1,9.698312759E0
1.257896101E0,-9.894038439E-1,-3.351882398E-1,9.722254753E0
1.259903601E0,-9.941922426E-1,-3.399766386E-1,9.746196747E0
1.261911153E0,-9.798270464E-1,-3.256114423E-1,9.727043152E0
1.263917976E0,-9.702502489E-1,-3.447650373E-1,9.717466354E0
1.265923549E0,-9.702502489E-1,-3.543418646E-1,9.707889557E0
1.267929070E0,-9.846154451E-1,-3.399766386E-1,9.712677956E0
1.269940007E0,-9.894038439E-1,-3.399766386E-1,9.727043152E0
1.271940164E0,-9.798270464E-1,-3.399766386E-1,9.727043152E0
1.273940528E0,-9.654618502E-1,-3.543418646E-1,9.707889557E0
1.275941830E0,-9.606734514E-1,-3.495534360E-1,9.707889557E0
1.277943132E0,-9.894038439E-1,-3.399766386E-1,9.722254753E0
1.279945111E0,-9.846154451E-1,-3.734954596E-1,9.727043152E0
1.281947924E0,-9.798270464E-1,-3.639186621E-1,9.717466354E0
1.283951622E0,-9.750386477E-1,-3.639186621E-1,9.703101158E0
1.285956257E0,-9.846154451E-1,-3.734954596E-1,9.712677956E0
1.287961830E0,-9.750386477E-1,-3.687070608E-1,9.736619949E0
1.289968289E0,-9.798270464E-1,-3.782838583E-1,9.731831551E0
1.291975580E0,-9.702502489E-1,-3.734954596E-1,9.717466354E0
1.293983601E0,-9.750386477E-1,-3.734954596E-1,9.727043152E0
1.295992195E0,-9.654618502E-1,-3.830722570E-1,9.727043152E0
1.298001205E0,-9.606734514E-1,-3.639186621E-1,9.712677956E0
1.300010476E0,-9.750386477E-1,-3.782838583E-1,9.727043152E0
1.302019851E0,-9.558850527E-1,-3.399766386E-1,9.736619949E0
1.304028914E0,-9.606734514E-1,-3.687070608E-1,9.741408348E0
1.306034486E0,-9.558850527E-1,-3.687070608E-1,9.746196747E0
1.308040007E0,-9.750386477E-1,-3.639186621E-1,9.750985146E0
1.310042820E0,-9.510966539E-1,-3.543418646E-1,9.741408348E0
1.312045841E0,-9.558850527E-1,-3.495534360E-1,9.727043152E0
1.314050320E0,-9.558850527E-1,-3.351882398E-1,9.712677956E0
1.316057664E0,-9.510966539E-1,-3.543418646E-1,9.717466354E0
1.318065111E0,-9.463081956E-1,-3.543418646E-1,9.731831551E0
1.320077976E0,-9.463081956E-1,-3.495534360E-1,9.717466354E0
1.322078809E0,-9.558850527E-1,-3.543418646E-1,9.717466354E0
1.324079799E0,-9.654618502E-1,-3.495534360E-1,9.727043152E0
1.326081153E0,-9.606734514E-1,-3.399766386E-1,9.736619949E0
1.328082976E0,-9.654618502E-1,-3.399766386E-1,9.731831551E0
1.330085424E0,-9.463081956E-1,-3.303998411E-1,9.746196747E0
1.332088601E0,-9.894038439E-1,-3.639186621E-1,9.741408348E0
1.334092559E0,-9.702502489E-1,-3.447650373E-1,9.731831551E0
1.336097351E0,-9.558850527E-1,-3.399766386E-1,9.750985146E0
1.338102976E0,-9.654618502E-1,-3.591302633E-1,9.765350342E0
1.340109382E0,-9.750386477E-1,-3.447650373E-1,9.727043152E0
1.342116518E0,-9.654618502E-1,-3.543418646E-1,9.750985146E0
1.344123653E0,-9.654618502E-1,-3.495534360E-1,9.741408348E0
1.346131361E0,-9.846154451E-1,-3.351882398E-1,9.717466354E0
1.348139539E0,-9.750386477E-1,-3.543418646E-1,9.727043152E0
1.350148028E0,-9.894038439E-1,-3.495534360E-1,9.727043152E0
1.352156726E0,-9.750386477E-1,-3.591302633E-1,9.727043152E0
1.354165476E0,-9.750386477E-1,-3.591302633E-1,9.736619949E0
1.356173132E0,-9.989806414E-1,-3.447650373E-1,9.707889557E0
1.358178653E0,-9.846154451E-1,-3.543418646E-1,9.717466354E0
1.360181466E0,-9.894038439E-1,-3.591302633E-1,9.717466354E0
1.362184486E0,-9.846154451E-1,-3.447650373E-1,9.736619949E0
1.364187820E0,-9.941922426E-1,-3.447650373E-1,9.727043152E0
1.366191518E0,-9.894038439E-1,-3.591302633E-1,9.741408348E0
1.368195632E0,-9.894038439E-1,-3.591302633E-1,9.727043152E0
1.370200216E0,-9.750386477E-1,-3.495534360E-1,9.722254753E0
1.372205268E0,-9.941922426E-1,-3.591302633E-1,9.707889557E0
1.374210789E0,-9.702502489E-1,-3.591302633E-1,9.722254753E0
1.376216778E0,-9.989806414E-1,-3.495534360E-1,9.736619949E0
1.378223184E0,-9.798270464E-1,-3.687070608E-1,9.722254753E0
1.380229955E0,-9.894038439E-1,-3.495534360E-1,9.727043152E0
1.382237039E0,-9.894038439E-1,-3.495534360E-1,9.717466354E0
1.384244382E0,-9.798270464E-1,-3.543418646E-1,9.703101158E0
1.386251882E0,-9.941922426E-1,-3.543418646E-1,9.712677956E0
1.388259434E0,-9.750386477E-1,-3.591302633E-1,9.707889557E0
1.390272403E0,-9.846154451E-1,-3.591302633E-1,9.698312759E0
1.392272976E0,-9.846154451E-1,-3.447650373E-1,9.722254753E0
1.394273705E0,-1.003769040E0,-3.591302633E-1,9.722254753E0
1.396274799E0,-9.750386477E-1,-3.687070608E-1,9.722254753E0
1.398276414E0,-9.894038439E-1,-3.495534360E-1,9.707889557E0
1.400278705E0,-9.750386477E-1,-3.591302633E-1,9.727043152E0
1.402281778E0,-9.798270464E-1,-3.687070608E-1,9.736619949E0
1.404285684E0,-9.989806414E-1,-3.543418646E-1,9.722254753E0
1.406290476E0,-9.989806414E-1,-3.495534360E-1,9.703101158E0
1.408296101E0,-9.941922426E-1,-3.639186621E-1,9.722254753E0
1.410302559E0,-9.846154451E-1,-3.639186621E-1,9.712677956E0
1.412309747E0,-1.008557439E0,-3.495534360E-1,9.717466354E0
1.414317611E0,-9.941922426E-1,-3.399766386E-1,9.693524361E0
1.416325997E0,-1.003769040E0,-3.591302633E-1,9.698312759E0
1.418338445E0,-1.013345838E0,-3.591302633E-1,9.703101158E0
1.420350893E0,-1.008557439E0,-3.687070608E-1,9.717466354E0
1.422356153E0,-1.003769040E0,-3.447650373E-1,9.722254753E0
1.424358705E0,-9.846154451E-1,-3.495534360E-1,9.741408348E0
1.426361466E0,-9.894038439E-1,-3.447650373E-1,9.746196747E0
1.428365111E0,-9.941922426E-1,-3.447650373E-1,9.736619949E0
1.430368809E0,-9.702502489E-1,-3.639186621E-1,9.722254753E0
1.432372924E0,-9.510966539E-1,-3.543418646E-1,9.722254753E0
1.434377507E0,-9.750386477E-1,-3.591302633E-1,9.755773544E0
1.436382559E0,-9.558850527E-1,-3.543418646E-1,9.731831551E0
1.438388080E0,-9.558850527E-1,-3.543418646E-1,9.736619949E0
1.440394070E0,-9.654618502E-1,-3.543418646E-1,9.741408348E0
1.442400476E0,-9.463081956E-1,-3.591302633E-1,9.741408348E0
1.444407247E0,-9.223662019E-1,-3.399766386E-1,9.736619949E0
1.446414330E0,-9.271546006E-1,-3.399766386E-1,9.750985146E0
1.448421674E0,-9.463081956E-1,-3.543418646E-1,9.736619949E0
1.450429174E0,-9.367313981E-1,-3.495534360E-1,9.746196747E0
1.452436778E0,-9.271546006E-1,-3.447650373E-1,9.736619949E0
1.454449799E0,-9.367313981E-1,-3.543418646E-1,9.755773544E0
1.456450424E0,-9.367313981E-1,-3.399766386E-1,9.731831551E0
1.458451205E0,-9.415197968E-1,-3.591302633E-1,9.722254753E0
1.460452351E0,-9.415197968E-1,-3.447650373E-1,9.750985146E0
1.462454018E0,-9.175778031E-1,-3.687070608E-1,9.746196747E0
1.464456361E0,-9.319429994E-1,-3.639186621E-1,9.755773544E0
1.466459434E0,-9.558850527E-1,-3.639186621E-1,9.736619949E0
1.468463341E0,-9.510966539E-1,-3.591302633E-1,9.750985146E0
1.470468080E0,-9.367313981E-1,-3.639186621E-1,9.741408348E0
1.472473653E0,-9.463081956E-1,-3.543418646E-1,9.741408348E0
1.474480059E0,-9.415197968E-1,-3.447650373E-1,9.750985146E0
1.476487195E0,-9.415197968E-1,-3.495534360E-1,9.727043152E0
1.478495007E0,-9.415197968E-1,-3.639186621E-1,9.727043152E0
1.480503341E0,-9.606734514E-1,-3.687070608E-1,9.693524361E0
1.482512091E0,-9.510966539E-1,-3.495534360E-1,9.731831551E0
1.484521101E0,-9.654618502E-1,-3.543418646E-1,9.722254753E0
1.486530216E0,-9.606734514E-1,-3.543418646E-1,9.731831551E0
1.488539174E0,-9.558850527E-1,-3.687070608E-1,9.722254753E0
1.490544747E0,-9.846154451E-1,-3.639186621E-1,9.722254753E0
1.492550268E0,-9.846154451E-1,-3.687070608E-1,9.736619949E0
1.494553080E0,-9.750386477E-1,-3.687070608E-1,9.727043152E0
1.496556101E0,-9.846154451E-1,-3.447650373E-1,9.727043152E0
1.498559434E0,-9.798270464E-1,-3.591302633E-1,9.731831551E0
1.500563132E0,-9.894038439E-1,-3.543418646E-1,9.727043152E0
1.502567247E0,-9.989806414E-1,-3.543418646E-1,9.703101158E0
1.504571830E0,-9.702502489E-1,-3.495534360E-1,9.712677956E0
1.506576882E0,-9.798270464E-1,-3.639186621E-1,9.727043152E0
1.508582403E0,-9.941922426E-1,-3.447650373E-1,9.712677956E0
1.510588393E0,-9.894038439E-1,-3.447650373E-1,9.736619949E0
1.512594799E0,-9.846154451E-1,-3.399766386E-1,9.717466354E0
1.514601570E0,-9.941922426E-1,-3.495534360E-1,9.717466354E0
1.516608653E0,-9.798270464E-1,-3.591302633E-1,9.722254753E0
1.518615997E0,-9.798270464E-1,-3.495534360E-1,9.722254753E0
1.520623497E0,-1.003769040E0,-3.447650373E-1,9.707889557E0
1.522631049E0,-9.894038439E-1,-3.447650373E-1,9.722254753E0
1.524638601E0,-9.750386477E-1,-3.495534360E-1,9.727043152E0
1.526644591E0,-9.894038439E-1,-3.543418646E-1,9.722254753E0
1.528650164E0,-9.798270464E-1,-3.495534360E-1,9.736619949E0
1.530655684E0,-9.702502489E-1,-3.639186621E-1,9.717466354E0
1.532666622E0,-9.750386477E-1,-3.399766386E-1,9.722254753E0
1.534666778E0,-9.654618502E-1,-3.495534360E-1,9.731831551E0
1.536667143E0,-9.606734514E-1,-3.543418646E-1,9.741408348E0
1.538667872E0,-9.702502489E-1,-3.495534360E-1,9.746196747E0
1.540669174E0,-9.654618502E-1,-3.399766386E-1,9.727043152E0
1.542671205E0,-9.702502489E-1,-3.495534360E-1,9.736619949E0
1.544674070E0,-9.654618502E-1,-3.351882398E-1,9.736619949E0
1.546677820E0,-9.606734514E-1,-3.591302633E-1,9.717466354E0
1.548682507E0,-9.750386477E-1,-3.447650373E-1,9.731831551E0
1.550688132E0,-9.558850527E-1,-3.447650373E-1,9.722254753E0
1.552694643E0,-9.558850527E-1,-3.303998411E-1,9.731831551E0
1.554701986E0,-9.558850527E-1,-3.495534360E-1,9.707889557E0
1.556710059E0,-9.702502489E-1,-3.782838583E-1,9.722254753E0
1.558718705E0,-9.654618502E-1,-3.591302633E-1,9.731831551E0
1.560727768E0,-9.654618502E-1,-3.399766386E-1,9.736619949E0
1.562737091E0,-9.750386477E-1,-3.495534360E-1,9.750985146E0
1.564746518E0,-9.702502489E-1,-3.495534360E-1,9.741408348E0
1.566755528E0,-9.846154451E-1,-3.543418646E-1,9.731831551E0
1.568761101E0,-9.654618502E-1,-3.782838583E-1,9.717466354E0
1.570766622E0,-9.654618502E-1,-3.543418646E-1,9.731831551E0
1.572769434E0,-9.606734514E-1,-3.543418646E-1,9.717466354E0
1.574772455E0,-9.750386477E-1,-3.543418646E-1,9.722254753E0
1.576775789E0,-9.558850527E-1,-3.639186621E-1,9.731831551E0
1.578779486E0,-9.798270464E-1,-3.591302633E-1,9.707889557E0
1.580783601E0,-9.798270464E-1,-3.351882398E-1,9.703101158E0
1.582788184E0,-9.798270464E-1,-3.543418646E-1,9.722254753E0
1.584793236E0,-9.654618502E-1,-3.591302633E-1,9.727043152E0
1.586798757E0,-9.750386477E-1,-3.543418646E-1,9.746196747E0
1.588804747E0,-9.798270464E-1,-3.447650373E-1,9.746196747E0
1.590811153E0,-9.654618502E-1,-3.639186621E-1,9.736619949E0
1.592817924E0,-9.846154451E-1,-3.591302633E-1,9.707889557E0
1.594825007E0,-9.702502489E-1,-3.447650373E-1,9.722254753E0
1.596832351E0,-9.798270464E-1,-3.399766386E-1,9.731831551E0
1.598843549E0,-9.798270464E-1,-3.543418646E-1,9.717466354E0
1.600854747E0,-9.750386477E-1,-3.399766386E-1,9.727043152E0
1.602855372E0,-9.654618502E-1,-3.591302633E-1,9.722254753E0
1.604856153E0,-9.750386477E-1,-3.447650373E-1,9.731831551E0
1.606857299E0,-9.702502489E-1,-3.591302633E-1,9.727043152E0
1.608859539E0,-9.846154451E-1,-3.591302633E-1,9.746196747E0
1.610863861E0,-9.654618502E-1,-3.543418646E-1,9.741408348E0
1.612868757E0,-9.750386477E-1,-3.543418646E-1,9.698312759E0
1.614874226E0,-9.702502489E-1,-3.399766386E-1,9.712677956E0
1.616880268E0,-9.702502489E-1,-3.447650373E-1,9.712677956E0
1.618886830E0,-9.750386477E-1,-3.591302633E-1,9.731831551E0
1.620893861E0,-9.654618502E-1,-3.687070608E-1,9.736619949E0
1.622901257E0,-9.606734514E-1,-3.495534360E-1,9.712677956E0
1.624908914E0,-9.750386477E-1,-3.495534360E-1,9.731831551E0
1.626916778E0,-9.798270464E-1,-3.543418646E-1,9.741408348E0
1.628924747E0,-9.798270464E-1,-3.639186621E-1,9.722254753E0
1.630938132E0,-9.702502489E-1,-3.543418646E-1,9.731831551E0
1.632938601E0,-9.750386477E-1,-3.447650373E-1,9.722254753E0
1.634939226E0,-9.750386477E-1,-3.447650373E-1,9.727043152E0
1.636940216E0,-9.798270464E-1,-3.639186621E-1,9.746196747E0
1.638941726E0,-9.798270464E-1,-3.639186621E-1,9.717466354E0
1.640943914E0,-9.606734514E-1,-3.782838583E-1,9.736619949E0
1.642946882E0,-9.558850527E-1,-3.687070608E-1,9.717466354E0
1.644950684E0,-9.702502489E-1,-3.782838583E-1,9.712677956E0
1.646956570E0,-9.750386477E-1,-3.687070608E-1,9.736619949E0
1.648962924E0,-9.846154451E-1,-3.591302633E-1,9.717466354E0
1.650970007E0,-9.750386477E-1,-3.591302633E-1,9.722254753E0
1.652977768E0,-9.846154451E-1,-3.734954596E-1,9.717466354E0
1.654986049E0,-9.798270464E-1,-3.734954596E-1,9.707889557E0
1.656994747E0,-9.750386477E-1,-3.639186621E-1,9.712677956E0
1.659003705E0,-9.989806414E-1,-3.782838583E-1,9.717466354E0
1.661012768E0,-1.003769040E0,-3.639186621E-1,9.698312759E0
1.663021778E0,-9.894038439E-1,-3.543418646E-1,9.712677956E0
1.665027351E0,-9.941922426E-1,-3.782838583E-1,9.717466354E0
1.667030216E0,-9.941922426E-1,-3.687070608E-1,9.703101158E0
1.669033289E0,-9.989806414E-1,-3.687070608E-1,9.741408348E0
1.671036622E0,-9.798270464E-1,-3.687070608E-1,9.731831551E0
1.673040320E0,-1.018134236E0,-3.495534360E-1,9.712677956E0
1.675044434E0,-9.989806414E-1,-3.639186621E-1,9.717466354E0
1.677049018E0,-1.008557439E0,-3.687070608E-1,9.712677956E0
1.679054070E0,-9.941922426E-1,-3.639186621E-1,9.707889557E0
1.681059591E0,-9.894038439E-1,-3.495534360E-1,9.707889557E0
1.683065580E0,-9.798270464E-1,-3.543418646E-1,9.707889557E0
1.685071986E0,-9.941922426E-1,-3.687070608E-1,9.707889557E0
1.687078757E0,-9.894038439E-1,-3.447650373E-1,9.736619949E0
1.689085841E0,-9.894038439E-1,-3.687070608E-1,9.703101158E0
1.691093184E0,-9.750386477E-1,-3.351882398E-1,9.722254753E0
1.693100684E0,-9.654618502E-1,-3.591302633E-1,9.717466354E0
1.695108236E0,-9.894038439E-1,-3.687070608E-1,9.741408348E0
1.697121205E0,-9.894038439E-1,-3.543418646E-1,9.712677956E0
1.699121674E0,-1.003769040E0,-3.591302633E-1,9.727043152E0
1.701122299E0,-9.798270464E-1,-3.399766386E-1,9.736619949E0
1.703123289E0,-9.750386477E-1,-3.399766386E-1,9.727043152E0
1.705124278E0,-9.654618502E-1,-3.543418646E-1,9.727043152E0
1.707125997E0,-9.606734514E-1,-3.543418646E-1,9.736619949E0
1.709128549E0,-9.654618502E-1,-3.639186621E-1,9.722254753E0
1.711132039E0,-9.654618502E-1,-3.495534360E-1,9.727043152E0
1.713136518E0,-9.702502489E-1,-3.591302633E-1,9.722254753E0
1.715141986E0,-9.654618502E-1,-3.591302633E-1,9.727043152E0
1.717148393E0,-9.702502489E-1,-3.543418646E-1,9.731831551E0
1.719155684E0,-9.654618502E-1,-3.543418646E-1,9.712677956E0
1.721163757E0,-9.558850527E-1,-3.734954596E-1,9.727043152E0
1.723172455E0,-9.941922426E-1,-3.591302633E-1,9.727043152E0
1.725181622E0,-9.798270464E-1,-3.495534360E-1,9.731831551E0
1.727191101E0,-9.654618502E-1,-3.543418646E-1,9.736619949E0
1.729200736E0,-9.654618502E-1,-3.639186621E-1,9.750985146E0
1.731207664E0,-9.702502489E-1,-3.447650373E-1,9.746196747E0
1.733214643E0,-9.894038439E-1,-3.543418646E-1,9.731831551E0
1.735221518E0,-9.606734514E-1,-3.591302633E-1,9.727043152E0
1.737227039E0,-9.750386477E-1,-3.495534360E-1,9.722254753E0
1.739237976E0,-9.750386477E-1,-3.591302633E-1,9.736619949E0
1.741238132E0,-9.894038439E-1,-3.495534360E-1,9.736619949E0
1.743238289E0,-9.750386477E-1,-3.543418646E-1,9.722254753E0
1.745238861E0,-9.654618502E-1,-3.447650373E-1,9.712677956E0
1.747240007E0,-9.798270464E-1,-3.495534360E-1,9.731831551E0
1.749241882E0,-9.894038439E-1,-3.591302633E-1,9.736619949E0
1.751244643E0,-9.702502489E-1,-3.639186621E-1,9.727043152E0
1.753248341E0,-9.654618502E-1,-3.543418646E-1,9.717466354E0
1.755253028E0,-9.750386477E-1,-3.543418646E-1,9.717466354E0
1.757258705E0,-9.702502489E-1,-3.591302633E-1,9.731831551E0
1.759265320E0,-9.702502489E-1,-3.399766386E-1,9.741408348E0
1.761272768E0,-9.798270464E-1,-3.543418646E-1,9.722254753E0
1.763280945E0,-9.798270464E-1,-3.639186621E-1,9.731831551E0
1.765289747E0,-9.846154451E-1,-3.639186621E-1,9.746196747E0
1.767299018E0,-9.798270464E-1,-3.351882398E-1,9.736619949E0
1.769308549E0,-9.750386477E-1,-3.495534360E-1,9.746196747E0
1.771318184E0,-9.702502489E-1,-3.591302633E-1,9.731831551E0
1.773326934E0,-1.008557439E0,-3.639186621E-1,9.741408348E0
1.775332455E0,-9.702502489E-1,-3.447650373E-1,9.731831551E0
1.777335268E0,-9.702502489E-1,-3.591302633E-1,9.750985146E0
1.779342039E0,-9.654618502E-1,-3.495534360E-1,9.736619949E0
1.781348809E0,-9.558850527E-1,-3.543418646E-1,9.746196747E0
1.783354643E0,-9.558850527E-1,-3.543418646E-1,9.722254753E0
1.785360216E0,-9.606734514E-1,-3.495534360E-1,9.727043152E0
1.787365736E0,-9.654618502E-1,-3.447650373E-1,9.731831551E0
1.789371882E0,-9.702502489E-1,-3.447650373E-1,9.750985146E0
1.791369226E0,-9.654618502E-1,-3.639186621E-1,9.727043152E0
1.793367195E0,-9.463081956E-1,-3.399766386E-1,9.717466354E0
1.795366049E0,-9.750386477E-1,-3.591302633E-1,9.727043152E0
1.797365997E0,-9.941922426E-1,-3.495534360E-1,9.741408348E0
1.799367247E0,-9.702502489E-1,-3.543418646E-1,9.741408348E0
1.801369903E0,-9.606734514E-1,-3.591302633E-1,9.746196747E0
1.803374018E0,-9.750386477E-1,-3.399766386E-1,9.722254753E0
1.805379591E0,-9.702502489E-1,-3.591302633E-1,9.741408348E0
1.807386570E0,-9.702502489E-1,-3.591302633E-1,9.731831551E0
1.809394851E0,-9.894038439E-1,-3.591302633E-1,9.722254753E0
1.811404278E0,-9.702502489E-1,-3.495534360E-1,9.736619949E0
1.813414643E0,-9.750386477E-1,-3.543418646E-1,9.731831551E0
1.815425736E0,-9.702502489E-1,-3.447650373E-1,9.731831551E0
1.817437976E0,-9.750386477E-1,-3.447650373E-1,9.736619949E0
1.819450216E0,-9.654618502E-1,-3.543418646E-1,9.736619949E0
1.821460059E0,-9.702502489E-1,-3.399766386E-1,9.707889557E0
1.823465580E0,-9.702502489E-1,-3.543418646E-1,9.703101158E0
1.825476518E0,-9.798270464E-1,-3.591302633E-1,9.707889557E0
1.827476674E0,-9.798270464E-1,-3.495534360E-1,9.717466354E0
1.829477039E0,-9.654618502E-1,-3.543418646E-1,9.731831551E0
1.831477820E0,-9.702502489E-1,-3.543418646E-1,9.731831551E0
1.833479174E0,-9.702502489E-1,-3.543418646E-1,9.736619949E0
1.835481257E0,-9.894038439E-1,-3.782838583E-1,9.727043152E0
1.837484174E0,-9.798270464E-1,-3.399766386E-1,9.731831551E0
1.839487976E0,-9.846154451E-1,-3.399766386E-1,9.736619949E0
1.841492716E0,-9.750386477E-1,-3.351882398E-1,9.717466354E0
1.843498393E0,-9.750386477E-1,-3.543418646E-1,9.712677956E0
1.845504955E0,-9.750386477E-1,-3.543418646E-1,9.731831551E0
1.847512299E0,-9.654618502E-1,-3.447650373E-1,9.722254753E0
1.849520320E0,-9.606734514E-1,-3.591302633E-1,9.727043152E0
1.851528914E0,-9.654618502E-1,-3.687070608E-1,9.722254753E0
1.853537924E0,-9.702502489E-1,-3.447650373E-1,9.736619949E0
1.855547299E0,-9.750386477E-1,-3.351882398E-1,9.717466354E0
1.857556674E0,-9.654618502E-1,-3.447650373E-1,9.727043152E0
1.859565476E0,-9.846154451E-1,-3.447650373E-1,9.741408348E0
1.861570997E0,-9.654618502E-1,-3.447650373E-1,9.736619949E0
1.863573809E0,-9.654618502E-1,-3.447650373E-1,9.722254753E0
1.865576830E0,-9.702502489E-1,-3.495534360E-1,9.727043152E0
1.867580164E0,-9.750386477E-1,-3.351882398E-1,9.736619949E0
1.869583861E0,-9.798270464E-1,-3.447650373E-1,9.722254753E0
1.871587976E0,-9.702502489E-1,-3.447650373E-1,9.731831551E0
1.873592559E0,-9.798270464E-1,-3.591302633E-1,9.746196747E0
1.875597611E0,-9.798270464E-1,-3.351882398E-1,9.746196747E0
1.877603132E0,-9.463081956E-1,-3.447650373E-1,9.736619949E0
1.879609122E0,-9.702502489E-1,-3.351882398E-1,9.741408348E0
1.881615528E0,-9.702502489E-1,-3.495534360E-1,9.717466354E0
1.883622299E0,-9.702502489E-1,-3.399766386E-1,9.727043152E0
1.885629382E0,-9.702502489E-1,-3.543418646E-1,9.722254753E0
1.887636726E0,-9.654618502E-1,-3.495534360E-1,9.731831551E0
1.889644226E0,-9.606734514E-1,-3.399766386E-1,9.722254753E0
1.891651778E0,-9.558850527E-1,-3.399766386E-1,9.727043152E0
1.893660007E0,-9.750386477E-1,-3.543418646E-1,9.722254753E0
1.895669070E0,-9.798270464E-1,-3.543418646E-1,9.736619949E0
1.897670893E0,-9.702502489E-1,-3.495534360E-1,9.727043152E0
1.899672820E0,-9.702502489E-1,-3.543418646E-1,9.741408348E0
1.901675007E0,-9.894038439E-1,-3.543418646E-1,9.727043152E0
1.903677559E0,-9.606734514E-1,-3.734954596E-1,9.703101158E0
1.905680580E0,-9.702502489E-1,-3.687070608E-1,9.736619949E0
1.907684174E0,-9.846154451E-1,-3.734954596E-1,9.712677956E0
1.909688393E0,-9.702502489E-1,-3.782838583E-1,9.727043152E0
1.911693289E0,-9.798270464E-1,-3.830722570E-1,9.722254753E0
1.913698861E0,-9.894038439E-1,-3.734954596E-1,9.746196747E0
1.915705059E0,-9.798270464E-1,-3.782838583E-1,9.717466354E0
1.917711830E0,-9.750386477E-1,-3.782838583E-1,9.731831551E0
1.919719122E0,-9.989806414E-1,-3.830722570E-1,9.712677956E0
1.921726830E0,-9.750386477E-1,-3.687070608E-1,9.707889557E0
1.923734851E0,-9.941922426E-1,-3.687070608E-1,9.717466354E0
1.925743080E0,-9.798270464E-1,-3.687070608E-1,9.703101158E0
1.927751414E0,-9.941922426E-1,-3.830722570E-1,9.698312759E0
1.929759643E0,-9.941922426E-1,-3.782838583E-1,9.703101158E0
1.931766726E0,-9.989806414E-1,-3.639186621E-1,9.707889557E0
1.933776205E0,-9.989806414E-1,-3.687070608E-1,9.722254753E0
1.935776309E0,-9.941922426E-1,-3.639186621E-1,9.722254753E0
1.937776622E0,-9.941922426E-1,-3.734954596E-1,9.717466354E0
1.939777351E0,-9.989806414E-1,-3.687070608E-1,9.717466354E0
1.941778653E0,-1.022922635E0,-3.591302633E-1,9.731831551E0
1.943780684E0,-9.941922426E-1,-3.495534360E-1,9.712677956E0
1.945783549E0,-9.846154451E-1,-3.447650373E-1,9.707889557E0
1.947787299E0,-1.003769040E0,-3.447650373E-1,9.722254753E0
1.949791986E0,-1.008557439E0,-3.639186621E-1,9.722254753E0
1.951797611E0,-9.989806414E-1,-3.543418646E-1,9.722254753E0
1.953804122E0,-1.003769040E0,-3.591302633E-1,9.693524361E0
1.955811466E0,-9.798270464E-1,-3.447650373E-1,9.727043152E0
1.957819539E0,-9.989806414E-1,-3.447650373E-1,9.731831551E0
1.959828184E0,-9.941922426E-1,-3.351882398E-1,9.727043152E0
1.961837247E0,-9.846154451E-1,-3.495534360E-1,9.727043152E0
1.963846570E0,-9.846154451E-1,-3.495534360E-1,9.712677956E0
1.965855997E0,-9.798270464E-1,-3.351882398E-1,9.698312759E0
1.967865059E0,-9.846154451E-1,-3.351882398E-1,9.727043152E0
1.969870632E0,-9.846154451E-1,-3.112462163E-1,9.712677956E0
1.971876153E0,-9.702502489E-1,-3.399766386E-1,9.722254753E0
1.973887091E0,-9.894038439E-1,-3.256114423E-1,9.741408348E0
1.975887247E0,-9.894038439E-1,-3.351882398E-1,9.722254753E0
1.977887611E0,-9.750386477E-1,-3.256114423E-1,9.717466354E0
1.979888341E0,-9.702502489E-1,-3.495534360E-1,9.741408348E0
1.981889643E0,-9.702502489E-1,-3.495534360E-1,9.746196747E0
1.983891674E0,-9.702502489E-1,-3.495534360E-1,9.722254753E0
1.985894539E0,-9.606734514E-1,-3.495534360E-1,9.712677956E0
1.987898289E0,-9.654618502E-1,-3.591302633E-1,9.722254753E0
1.989902976E0,-9.558850527E-1,-3.591302633E-1,9.722254753E0
1.991908601E0,-9.606734514E-1,-3.495534360E-1,9.712677956E0
1.993915111E0,-9.558850527E-1,-3.639186621E-1,9.741408348E0
1.995922455E0,-9.510966539E-1,-3.639186621E-1,9.760561943E0
1.997930528E0,-9.558850527E-1,-3.639186621E-1,9.736619949E0
1.999939174E0,-9.558850527E-1,-3.591302633E-1,9.727043152E0
2.001948236E0,-9.846154451E-1,-3.734954596E-1,9.722254753E0
2.003957559E0,-9.415197968E-1,-3.639186621E-1,9.722254753E0
2.005966986E0,-9.319429994E-1,-3.782838583E-1,9.736619949E0
2.007976049E0,-9.463081956E-1,-3.782838583E-1,9.746196747E0
2.009981570E0,-9.606734514E-1,-3.687070608E-1,9.731831551E0
2.011984382E0,-9.271546006E-1,-3.543418646E-1,9.741408348E0
2.013987403E0,-9.558850527E-1,-3.687070608E-1,9.722254753E0
2.015990736E0,-9.415197968E-1,-3.639186621E-1,9.722254753E0
2.017994434E0,-9.367313981E-1,-3.687070608E-1,9.736619949E0
2.019998549E0,-9.319429994E-1,-3.591302633E-1,9.755773544E0
2.022003132E0,-9.606734514E-1,-3.543418646E-1,9.770138741E0
2.024008184E0,-9.510966539E-1,-3.495534360E-1,9.765350342E0
2.026013705E0,-9.367313981E-1,-3.687070608E-1,9.755773544E0
2.028019695E0,-9.510966539E-1,-3.399766386E-1,9.727043152E0
2.030026101E0,-9.463081956E-1,-3.303998411E-1,9.731831551E0
2.032032872E0,-9.223662019E-1,-3.399766386E-1,9.750985146E0
2.034039955E0,-9.415197968E-1,-3.256114423E-1,9.722254753E0
2.036047299E0,-9.510966539E-1,-3.447650373E-1,9.746196747E0
2.038054799E0,-9.367313981E-1,-3.399766386E-1,9.746196747E0
2.040062351E0,-9.606734514E-1,-3.399766386E-1,9.760561943E0
2.042075320E0,-9.606734514E-1,-3.303998411E-1,9.746196747E0
2.044075893E0,-9.367313981E-1,-3.399766386E-1,9.755773544E0
2.046076622E0,-9.415197968E-1,-3.495534360E-1,9.736619949E0
2.048077716E0,-9.415197968E-1,-3.303998411E-1,9.727043152E0
2.050079330E0,-9.463081956E-1,-3.256114423E-1,9.731831551E0
2.052081622E0,-9.415197968E-1,-3.447650373E-1,9.731831551E0
2.054084695E0,-9.367313981E-1,-3.399766386E-1,9.717466354E0
2.056088601E0,-9.510966539E-1,-3.495534360E-1,9.722254753E0
2.058093393E0,-9.510966539E-1,-3.591302633E-1,9.731831551E0
2.060099018E0,-9.558850527E-1,-3.543418646E-1,9.731831551E0
2.062105476E0,-9.463081956E-1,-3.543418646E-1,9.722254753E0
2.064112664E0,-9.702502489E-1,-3.639186621E-1,9.731831551E0
2.066120528E0,-9.654618502E-1,-3.782838583E-1,9.731831551E0
2.068128914E0,-9.654618502E-1,-3.926490843E-1,9.703101158E0
2.070137716E0,-9.654618502E-1,-3.734954596E-1,9.664793968E0
2.072146778E0,-9.989806414E-1,-3.734954596E-1,9.607333183E0
2.074155945E0,-1.042076349E0,-3.878606856E-1,9.616909981E0
2.076164695E0,-1.056441545E0,-3.926490843E-1,9.679159164E0
2.078170216E0,-1.051653147E0,-3.878606856E-1,9.698312759E0
2.080173028E0,-1.032499433E0,-3.878606856E-1,9.693524361E0
2.082176049E0,-1.042076349E0,-3.878606856E-1,9.727043152E0
2.084179382E0,-1.066018343E0,-4.118026793E-1,9.765350342E0
2.086183080E0,-1.056441545E0,-3.926490843E-1,9.717466354E0
2.088187195E0,-1.022922635E0,-3.926490843E-1,9.683947563E0
2.090191778E0,-1.042076349E0,-3.974374831E-1,9.683947563E0
2.092196830E0,-1.042076349E0,-3.782838583E-1,9.674370766E0
2.094202351E0,-1.013345838E0,-3.639186621E-1,9.655217171E0
2.096208341E0,-1.046864748E0,-3.782838583E-1,9.679159164E0
2.098214747E0,-1.037287831E0,-3.734954596E-1,9.645640373E0
2.100221518E0,-9.750386477E-1,-3.591302633E-1,9.664793968E0
2.102228601E0,-1.032499433E0,-3.830722570E-1,9.731831551E0
2.104235684E0,-1.042076349E0,-3.830722570E-1,9.746196747E0
2.106242924E0,-9.798270464E-1,-3.687070608E-1,9.717466354E0
2.108250268E0,-9.510966539E-1,-3.591302633E-1,9.679159164E0
2.110257664E0,-1.013345838E0,-3.687070608E-1,9.731831551E0
2.112264539E0,-9.989806414E-1,-3.447650373E-1,9.808445930E0
2.114270111E0,-9.606734514E-1,-3.256114423E-1,9.798869133E0
2.116275632E0,-9.415197968E-1,-3.399766386E-1,9.736619949E0
2.118286570E0,-9.702502489E-1,-3.351882398E-1,9.679159164E0
2.120286726E0,-9.319429994E-1,-3.399766386E-1,9.683947563E0
2.122287091E0,-9.367313981E-1,-3.112462163E-1,9.741408348E0
2.124287820E0,-9.271546006E-1,-3.160346150E-1,9.794080734E0
2.126289122E0,-9.127894044E-1,-3.208230138E-1,9.798869133E0
2.128291153E0,-9.032126069E-1,-2.920926213E-1,9.794080734E0
2.130294018E0,-9.127894044E-1,-2.920926213E-1,9.794080734E0
2.132297768E0,-9.367313981E-1,-3.064578176E-1,9.779715538E0
2.134302455E0,-9.080010056E-1,-2.825157940E-1,9.736619949E0
2.136308080E0,-8.744821548E-1,-2.873041928E-1,9.722254753E0
2.138314591E0,-8.888474107E-1,-2.920926213E-1,9.722254753E0
2.140321934E0,-9.032126069E-1,-2.825157940E-1,9.736619949E0
2.142330007E0,-8.936358094E-1,-3.016694188E-1,9.736619949E0
2.144338653E0,-9.223662019E-1,-3.016694188E-1,9.784503937E0
2.146347716E0,-9.080010056E-1,-3.112462163E-1,9.803657532E0
2.148357039E0,-9.175778031E-1,-3.303998411E-1,9.813234329E0
2.150366466E0,-9.319429994E-1,-3.495534360E-1,9.794080734E0
2.152375528E0,-9.271546006E-1,-3.447650373E-1,9.770138741E0
2.154381101E0,-9.319429994E-1,-3.495534360E-1,9.760561943E0
2.156386622E0,-9.367313981E-1,-3.543418646E-1,9.750985146E0
2.158389434E0,-9.415197968E-1,-3.734954596E-1,9.750985146E0
2.160392455E0,-9.032126069E-1,-3.687070608E-1,9.707889557E0
2.162395789E0,-9.127894044E-1,-3.687070608E-1,9.688735962E0
2.164399486E0,-9.223662019E-1,-3.830722570E-1,9.717466354E0
2.166403601E0,-9.463081956E-1,-3.974374831E-1,9.717466354E0
2.168408184E0,-9.558850527E-1,-3.926490843E-1,9.736619949E0
2.170413236E0,-9.510966539E-1,-3.878606856E-1,9.727043152E0
2.172418757E0,-9.558850527E-1,-4.022258818E-1,9.727043152E0
2.174424747E0,-9.941922426E-1,-4.022258818E-1,9.698312759E0
2.176431153E0,-9.798270464E-1,-4.118026793E-1,9.736619949E0
2.178438705E0,-1.008557439E0,-4.022258818E-1,9.755773544E0
2.180446257E0,-9.798270464E-1,-4.022258818E-1,9.741408348E0
2.182453966E0,-9.941922426E-1,-4.022258818E-1,9.683947563E0
2.184461778E0,-1.003769040E0,-3.926490843E-1,9.645640373E0
2.186475007E0,-1.008557439E0,-4.022258818E-1,9.664793968E0
2.188475424E0,-1.022922635E0,-3.782838583E-1,9.688735962E0
2.190475997E0,-9.941922426E-1,-3.734954596E-1,9.688735962E0
2.192476934E0,-9.941922426E-1,-3.734954596E-1,9.698312759E0
2.194478393E0,-1.013345838E0,-3.734954596E-1,9.707889557E0
2.196480528E0,-1.022922635E0,-3.591302633E-1,9.698312759E0
2.198483445E0,-1.008557439E0,-3.687070608E-1,9.693524361E0
2.200487247E0,-1.027711034E0,-3.447650373E-1,9.703101158E0
2.202491934E0,-1.018134236E0,-3.495534360E-1,9.683947563E0
2.204497507E0,-1.027711034E0,-3.256114423E-1,9.664793968E0
2.206503966E0,-1.003769040E0,-3.303998411E-1,9.660005569E0
2.208511205E0,-1.022922635E0,-3.208230138E-1,9.683947563E0
2.210519122E0,-1.022922635E0,-3.256114423E-1,9.688735962E0
2.212527611E0,-1.018134236E0,-3.160346150E-1,9.683947563E0
2.214536518E0,-1.003769040E0,-3.256114423E-1,9.717466354E0
2.216545684E0,-1.032499433E0,-3.112462163E-1,9.741408348E0
2.218554955E0,-1.027711034E0,-3.256114423E-1,9.722254753E0
2.220564174E0,-1.013345838E0,-3.256114423E-1,9.727043152E0
2.222569747E0,-1.003769040E0,-3.256114423E-1,9.727043152E0
2.224572611E0,-9.989806414E-1,-3.112462163E-1,9.712677956E0
2.226575684E0,-1.003769040E0,-3.208230138E-1,9.693524361E0
2.228579018E0,-9.846154451E-1,-3.351882398E-1,9.712677956E0
2.230582716E0,-9.798270464E-1,-3.447650373E-1,9.693524361E0
2.232586830E0,-9.798270464E-1,-3.399766386E-1,9.707889557E0
2.234591414E0,-9.606734514E-1,-3.399766386E-1,9.712677956E0
2.236596466E0,-9.606734514E-1,-3.447650373E-1,9.731831551E0
2.238601986E0,-9.654618502E-1,-3.495534360E-1,9.741408348E0
2.240607976E0,-9.463081956E-1,-3.543418646E-1,9.746196747E0
2.242614382E0,-9.415197968E-1,-3.591302633E-1,9.731831551E0
2.244621153E0,-9.510966539E-1,-3.639186621E-1,9.746196747E0
2.246627924E0,-9.415197968E-1,-3.639186621E-1,9.736619949E0
2.248634955E0,-9.367313981E-1,-3.782838583E-1,9.746196747E0
2.250642195E0,-9.367313981E-1,-3.734954596E-1,9.746196747E0
2.252649539E0,-9.271546006E-1,-3.687070608E-1,9.727043152E0
2.254657664E0,-9.223662019E-1,-3.830722570E-1,9.727043152E0
2.256666518E0,-9.175778031E-1,-3.782838583E-1,9.755773544E0
2.258669643E0,-9.319429994E-1,-3.782838583E-1,9.741408348E0
2.260672820E0,-9.319429994E-1,-3.878606856E-1,9.741408348E0
2.262676153E0,-9.463081956E-1,-3.782838583E-1,9.755773544E0
2.264679747E0,-9.510966539E-1,-3.830722570E-1,9.770138741E0
2.266683653E0,-9.319429994E-1,-3.687070608E-1,9.750985146E0
2.268687924E0,-9.319429994E-1,-3.782838583E-1,9.736619949E0
2.270692611E0,-9.558850527E-1,-3.734954596E-1,9.741408348E0
2.272697716E0,-9.271546006E-1,-3.687070608E-1,9.703101158E0
2.274703236E0,-9.558850527E-1,-3.495534360E-1,9.722254753E0
2.276709174E0,-9.606734514E-1,-3.351882398E-1,9.746196747E0
2.278715476E0,-9.654618502E-1,-3.495534360E-1,9.722254753E0
2.280722091E0,-9.654618502E-1,-3.495534360E-1,9.746196747E0
2.282728966E0,-9.606734514E-1,-3.399766386E-1,9.727043152E0
2.284735841E0,-9.654618502E-1,-3.447650373E-1,9.741408348E0
2.286742872E0,-9.702502489E-1,-3.495534360E-1,9.722254753E0
2.288750007E0,-9.606734514E-1,-3.399766386E-1,9.731831551E0
2.290762559E0,-9.798270464E-1,-3.351882398E-1,9.750985146E0
2.292767143E0,-9.750386477E-1,-3.303998411E-1,9.722254753E0
2.294771726E0,-9.750386477E-1,-3.208230138E-1,9.707889557E0
2.296775059E0,-9.558850527E-1,-3.351882398E-1,9.703101158E0
2.298778445E0,-9.702502489E-1,-3.256114423E-1,9.698312759E0
2.300781986E0,-9.798270464E-1,-3.303998411E-1,9.698312759E0
2.302785736E0,-9.941922426E-1,-3.160346150E-1,9.712677956E0
2.304789747E0,-9.989806414E-1,-3.256114423E-1,9.707889557E0
2.306794070E0,-9.989806414E-1,-3.351882398E-1,9.707889557E0
2.308798757E0,-9.894038439E-1,-3.208230138E-1,9.727043152E0
2.310803861E0,-9.750386477E-1,-3.495534360E-1,9.731831551E0
2.312809382E0,-9.798270464E-1,-3.399766386E-1,9.722254753E0
2.314815268E0,-9.941922426E-1,-3.495534360E-1,9.717466354E0
2.316821518E0,-9.894038439E-1,-3.399766386E-1,9.707889557E0
2.318828080E0,-9.846154451E-1,-3.447650373E-1,9.707889557E0
2.320837507E0,-9.894038439E-1,-3.543418646E-1,9.703101158E0
2.322846934E0,-9.798270464E-1,-3.543418646E-1,9.703101158E0
2.324852768E0,-9.989806414E-1,-3.591302633E-1,9.722254753E0
2.326858289E0,-9.941922426E-1,-3.639186621E-1,9.712677956E0
2.328861101E0,-9.941922426E-1,-3.639186621E-1,9.727043152E0
2.330864851E0,-9.798270464E-1,-3.782838583E-1,9.703101158E0
2.332868809E0,-1.003769040E0,-3.830722570E-1,9.727043152E0
2.334873028E0,-9.894038439E-1,-3.687070608E-1,9.722254753E0
2.336877559E0,-9.941922426E-1,-3.591302633E-1,9.703101158E0
2.338882455E0,-9.846154451E-1,-3.734954596E-1,9.717466354E0
2.340887716E0,-9.846154451E-1,-3.687070608E-1,9.717466354E0
2.342893341E0,-9.798270464E-1,-3.734954596E-1,9.707889557E0
2.344899330E0,-9.798270464E-1,-3.591302633E-1,9.688735962E0
2.346905632E0,-9.989806414E-1,-3.543418646E-1,9.703101158E0
2.348912195E0,-9.894038439E-1,-3.543418646E-1,9.693524361E0
2.350918966E0,-9.798270464E-1,-3.734954596E-1,9.707889557E0
2.352925893E0,-9.750386477E-1,-3.591302633E-1,9.731831551E0
2.354932924E0,-9.654618502E-1,-3.447650373E-1,9.717466354E0
2.356940007E0,-9.798270464E-1,-3.639186621E-1,9.717466354E0
2.358947872E0,-9.894038439E-1,-3.782838583E-1,9.722254753E0
2.360955736E0,-9.702502489E-1,-3.591302633E-1,9.731831551E0
2.362958184E0,-9.798270464E-1,-3.639186621E-1,9.712677956E0
2.364960736E0,-9.750386477E-1,-3.543418646E-1,9.727043152E0
2.366963497E0,-9.606734514E-1,-3.543418646E-1,9.722254753E0
2.368966674E0,-9.558850527E-1,-3.447650373E-1,9.727043152E0
2.370969955E0,-9.558850527E-1,-3.495534360E-1,9.731831551E0
2.372973705E0,-9.654618502E-1,-3.639186621E-1,9.746196747E0
2.374977976E0,-9.702502489E-1,-3.495534360E-1,9.741408348E0
2.376982820E0,-9.558850527E-1,-3.351882398E-1,9.760561943E0
2.378988236E0,-9.510966539E-1,-3.303998411E-1,9.755773544E0
2.380994226E0,-9.558850527E-1,-3.495534360E-1,9.741408348E0
2.383000736E0,-9.510966539E-1,-3.543418646E-1,9.746196747E0
2.385007716E0,-9.319429994E-1,-3.447650373E-1,9.727043152E0
2.387015059E0,-9.319429994E-1,-3.447650373E-1,9.746196747E0
2.389022716E0,-9.271546006E-1,-3.543418646E-1,9.731831551E0
2.391030580E0,-9.510966539E-1,-3.495534360E-1,9.731831551E0
2.393038549E0,-9.463081956E-1,-3.351882398E-1,9.741408348E0
2.395051934E0,-9.319429994E-1,-3.639186621E-1,9.750985146E0
2.397056830E0,-9.463081956E-1,-3.351882398E-1,9.750985146E0
2.399061726E0,-9.510966539E-1,-3.543418646E-1,9.746196747E0
2.401063653E0,-9.367313981E-1,-3.303998411E-1,9.746196747E0
2.403065684E0,-9.510966539E-1,-3.495534360E-1,9.755773544E0
2.405067976E0,-9.558850527E-1,-3.543418646E-1,9.736619949E0
2.407070632E0,-9.319429994E-1,-3.447650373E-1,9.727043152E0
2.409073757E0,-9.415197968E-1,-3.639186621E-1,9.736619949E0
2.411077455E0,-9.463081956E-1,-3.687070608E-1,9.736619949E0
2.413081778E0,-9.510966539E-1,-3.639186621E-1,9.746196747E0
2.415086726E0,-9.463081956E-1,-3.687070608E-1,9.741408348E0
2.417092299E0,-9.606734514E-1,-3.734954596E-1,9.755773544E0
2.419098497E0,-9.510966539E-1,-3.734954596E-1,9.736619949E0
2.421105268E0,-9.510966539E-1,-3.591302633E-1,9.736619949E0
2.423112507E0,-9.463081956E-1,-3.830722570E-1,9.722254753E0
2.425120164E0,-9.510966539E-1,-3.830722570E-1,9.727043152E0
2.427127820E0,-9.510966539E-1,-3.543418646E-1,9.736619949E0
2.429135684E0,-9.319429994E-1,-3.639186621E-1,9.727043152E0
2.431143653E0,-9.558850527E-1,-3.639186621E-1,9.741408348E0
2.433148914E0,-9.702502489E-1,-3.639186621E-1,9.722254753E0
2.435154278E0,-9.510966539E-1,-3.591302633E-1,9.722254753E0
2.437159799E0,-9.606734514E-1,-3.591302633E-1,9.741408348E0
2.439165424E0,-9.606734514E-1,-3.543418646E-1,9.736619949E0
2.441171153E0,-9.463081956E-1,-3.591302633E-1,9.717466354E0
2.443176986E0,-9.510966539E-1,-3.591302633E-1,9.722254753E0
2.445182924E0,-9.606734514E-1,-3.591302633E-1,9.722254753E0
2.447188914E0,-9.558850527E-1,-3.495534360E-1,9.727043152E0
2.449194955E0,-9.798270464E-1,-3.447650373E-1,9.755773544E0
2.451201049E0,-9.750386477E-1,-3.591302633E-1,9.736619949E0
2.453212559E0,-9.798270464E-1,-3.495534360E-1,9.741408348E0
2.455213497E0,-9.702502489E-1,-3.447650373E-1,9.727043152E0
2.457214591E0,-9.702502489E-1,-3.543418646E-1,9.727043152E0
2.459215997E0,-9.846154451E-1,-3.447650373E-1,9.712677956E0
2.461217872E0,-9.750386477E-1,-3.447650373E-1,9.717466354E0
2.463220372E0,-9.702502489E-1,-3.351882398E-1,9.727043152E0
2.465223601E0,-9.798270464E-1,-3.447650373E-1,9.712677956E0
2.467227611E0,-9.750386477E-1,-3.447650373E-1,9.707889557E0
2.469232403E0,-9.702502489E-1,-3.208230138E-1,9.727043152E0
2.471237976E0,-9.702502489E-1,-3.447650373E-1,9.736619949E0
2.473244330E0,-9.750386477E-1,-3.495534360E-1,9.731831551E0
2.475251414E0,-9.606734514E-1,-3.303998411E-1,9.727043152E0
2.477259122E0,-9.654618502E-1,-3.447650373E-1,9.750985146E0
2.479267351E0,-9.606734514E-1,-3.543418646E-1,9.765350342E0
2.481275945E0,-9.654618502E-1,-3.495534360E-1,9.760561943E0
2.483284799E0,-9.558850527E-1,-3.351882398E-1,9.712677956E0
2.485293757E0,-9.702502489E-1,-3.495534360E-1,9.683947563E0
2.487302299E0,-9.750386477E-1,-3.447650373E-1,9.674370766E0
2.489307872E0,-9.798270464E-1,-3.495534360E-1,9.727043152E0
2.491313393E0,-1.003769040E0,-3.303998411E-1,9.755773544E0
2.493316205E0,-9.894038439E-1,-3.543418646E-1,9.731831551E0
2.495319226E0,-9.798270464E-1,-3.543418646E-1,9.722254753E0
2.497322559E0,-9.798270464E-1,-3.543418646E-1,9.707889557E0
2.499326257E0,-9.941922426E-1,-3.591302633E-1,9.688735962E0
2.501334278E0,-1.008557439E0,-3.543418646E-1,9.707889557E0
2.503342299E0,-9.894038439E-1,-3.734954596E-1,9.707889557E0
2.505350372E0,-9.894038439E-1,-3.734954596E-1,9.683947563E0
2.507357820E0,-9.894038439E-1,-3.734954596E-1,9.707889557E0
2.509363341E0,-1.003769040E0,-3.782838583E-1,9.698312759E0
2.511369591E0,-9.702502489E-1,-3.782838583E-1,9.727043152E0
2.513377039E0,-9.846154451E-1,-3.830722570E-1,9.712677956E0
2.515380007E0,-9.750386477E-1,-3.878606856E-1,9.698312759E0
2.517383028E0,-9.894038439E-1,-3.639186621E-1,9.679159164E0
2.519386205E0,-1.013345838E0,-3.734954596E-1,9.693524361E0
2.521389643E0,-9.846154451E-1,-3.782838583E-1,9.717466354E0
2.523393445E0,-9.798270464E-1,-3.734954596E-1,9.731831551E0
2.525397664E0,-9.798270464E-1,-3.782838583E-1,9.698312759E0
2.527402299E0,-9.654618502E-1,-3.591302633E-1,9.683947563E0
2.529407403E0,-9.941922426E-1,-3.639186621E-1,9.707889557E0
2.531412976E0,-9.941922426E-1,-3.639186621E-1,9.693524361E0
2.533418966E0,-9.894038439E-1,-3.495534360E-1,9.703101158E0
2.535425372E0,-9.941922426E-1,-3.399766386E-1,9.688735962E0
2.537432143E0,-1.008557439E0,-3.495534360E-1,9.712677956E0
2.539440007E0,-1.013345838E0,-3.399766386E-1,9.722254753E0
2.541447872E0,-1.003769040E0,-3.351882398E-1,9.746196747E0
2.543455789E0,-1.003769040E0,-3.256114423E-1,9.765350342E0
2.545463236E0,-9.941922426E-1,-3.256114423E-1,9.746196747E0
2.547468809E0,-9.894038439E-1,-3.256114423E-1,9.717466354E0
2.549474486E0,-1.008557439E0,-3.160346150E-1,9.736619949E0
2.551472299E0,-1.008557439E0,-3.303998411E-1,9.746196747E0
2.553470684E0,-9.941922426E-1,-3.256114423E-1,9.741408348E0
2.555469903E0,-9.606734514E-1,-3.208230138E-1,9.727043152E0
2.557470216E0,-9.606734514E-1,-3.208230138E-1,9.746196747E0
2.559471778E0,-9.654618502E-1,-3.495534360E-1,9.755773544E0
2.561474695E0,-9.463081956E-1,-3.399766386E-1,9.789292336E0
2.563479018E0,-9.415197968E-1,-3.399766386E-1,9.779715538E0
2.565484747E0,-9.319429994E-1,-3.447650373E-1,9.770138741E0
2.567491830E0,-9.271546006E-1,-3.495534360E-1,9.765350342E0
2.569500111E0,-9.127894044E-1,-3.543418646E-1,9.750985146E0
2.571509434E0,-9.080010056E-1,-3.543418646E-1,9.731831551E0
2.573519643E0,-9.367313981E-1,-3.687070608E-1,9.741408348E0
2.575530476E0,-9.127894044E-1,-3.734954596E-1,9.755773544E0
2.577541726E0,-8.984242082E-1,-3.830722570E-1,9.779715538E0
2.579553132E0,-9.223662019E-1,-3.830722570E-1,9.750985146E0
2.581563184E0,-9.271546006E-1,-3.782838583E-1,9.760561943E0
2.583568705E0,-9.175778031E-1,-4.070142806E-1,9.736619949E0
2.585579643E0,-9.367313981E-1,-4.022258818E-1,9.736619949E0
2.587579799E0,-9.271546006E-1,-3.974374831E-1,9.736619949E0
2.589580164E0,-9.175778031E-1,-4.070142806E-1,9.755773544E0
2.591580893E0,-9.319429994E-1,-4.261679053E-1,9.765350342E0
2.593582195E0,-9.271546006E-1,-4.118026793E-1,9.760561943E0
2.595584226E0,-9.127894044E-1,-4.213795066E-1,9.741408348E0
2.597587091E0,-9.127894044E-1,-4.213795066E-1,9.741408348E0
2.599590841E0,-9.367313981E-1,-4.165911078E-1,9.731831551E0
2.601595528E0,-9.319429994E-1,-4.118026793E-1,9.717466354E0
2.603601153E0,-9.175778031E-1,-4.118026793E-1,9.727043152E0
2.605607664E0,-9.271546006E-1,-4.309563041E-1,9.731831551E0
2.607614174E0,-9.367313981E-1,-4.261679053E-1,9.731831551E0
2.609621466E0,-9.271546006E-1,-4.118026793E-1,9.741408348E0
2.611629434E0,-9.223662019E-1,-4.118026793E-1,9.750985146E0
2.613637976E0,-9.223662019E-1,-4.070142806E-1,9.731831551E0
2.615646934E0,-9.175778031E-1,-3.974374831E-1,9.717466354E0
2.617656153E0,-9.319429994E-1,-3.830722570E-1,9.727043152E0
2.619665476E0,-9.175778031E-1,-3.926490843E-1,9.731831551E0
2.621674174E0,-9.319429994E-1,-3.687070608E-1,9.736619949E0
2.623679747E0,-9.367313981E-1,-3.591302633E-1,9.750985146E0
2.625685268E0,-9.319429994E-1,-3.399766386E-1,9.755773544E0
2.627688080E0,-9.367313981E-1,-3.495534360E-1,9.750985146E0
2.629691101E0,-9.415197968E-1,-3.351882398E-1,9.755773544E0
2.631694434E0,-9.367313981E-1,-3.064578176E-1,9.731831551E0
2.633698132E0,-9.463081956E-1,-2.968810201E-1,9.731831551E0
2.635702247E0,-9.415197968E-1,-2.873041928E-1,9.741408348E0
2.637706830E0,-9.510966539E-1,-2.729389966E-1,9.760561943E0
2.639711882E0,-9.606734514E-1,-2.825157940E-1,9.779715538E0
2.641717403E0,-9.271546006E-1,-2.633621991E-1,9.770138741E0
2.643723393E0,-9.415197968E-1,-2.537853718E-1,9.760561943E0
2.645729382E0,-9.271546006E-1,-2.585737705E-1,9.760561943E0
2.647735789E0,-9.319429994E-1,-2.537853718E-1,9.760561943E0
2.649742559E0,-9.319429994E-1,-2.202665508E-1,9.779715538E0
2.651749643E0,-9.367313981E-1,-2.394201756E-1,9.770138741E0
2.653756934E0,-9.319429994E-1,-2.537853718E-1,9.755773544E0
2.655764382E0,-9.415197968E-1,-2.442085743E-1,9.765350342E0
2.657771882E0,-9.223662019E-1,-2.442085743E-1,9.784503937E0
2.659784799E0,-9.271546006E-1,-2.346317619E-1,9.779715538E0
2.661785164E0,-9.415197968E-1,-2.442085743E-1,9.789292336E0
2.663785736E0,-9.127894044E-1,-2.346317619E-1,9.765350342E0
2.665786674E0,-9.223662019E-1,-2.394201756E-1,9.770138741E0
2.667788132E0,-9.415197968E-1,-2.681505978E-1,9.765350342E0
2.669790268E0,-9.319429994E-1,-2.585737705E-1,9.770138741E0
2.671793184E0,-9.271546006E-1,-2.873041928E-1,9.770138741E0
2.673796986E0,-9.463081956E-1,-3.160346150E-1,9.741408348E0
2.675801674E0,-9.463081956E-1,-3.447650373E-1,9.741408348E0
2.677807247E0,-9.606734514E-1,-3.591302633E-1,9.731831551E0
2.679813705E0,-9.510966539E-1,-3.495534360E-1,9.746196747E0
2.681824851E0,-9.463081956E-1,-3.974374831E-1,9.755773544E0
2.683835997E0,-9.606734514E-1,-4.357447028E-1,9.755773544E0
2.685847299E0,-9.654618502E-1,-4.979939461E-1,9.736619949E0
2.687857351E0,-9.989806414E-1,-6.895300746E-1,9.746196747E0
2.689862924E0,-1.032499433E0,-8.092401624E-1,9.741408348E0
2.691868445E0,-9.415197968E-1,-5.506663918E-1,9.683947563E0
2.693871257E0,-8.313865662E-1,-5.793967843E-1,9.501988411E0
2.695874278E0,-8.409633636E-1,-4.309563041E-1,9.454104424E0
2.697877611E0,-9.032126069E-1,-4.932055473E-1,9.487623215E0
2.699881309E0,-8.361749649E-1,-3.926490843E-1,9.645640373E0
2.701885424E0,-9.032126069E-1,-4.213795066E-1,9.885060310E0
2.703890007E0,-9.846154451E-1,-4.309563041E-1,9.990405083E0
2.705895059E0,-9.654618502E-1,-5.650315881E-1,9.846753120E0
2.707900580E0,-1.003769040E0,-4.884171486E-1,9.731831551E0
2.709906570E0,-1.094748735E0,-4.501099288E-1,9.717466354E0
2.711912976E0,-1.037287831E0,-3.303998411E-1,9.770138741E0
2.713919747E0,-9.750386477E-1,-2.920926213E-1,9.712677956E0
2.715926830E0,-9.558850527E-1,-3.064578176E-1,9.612121582E0
2.717934174E0,-9.941922426E-1,-2.777273953E-1,9.573814392E0
2.719942507E0,-1.123479128E0,-3.399766386E-1,9.683947563E0
2.721950841E0,-1.070806742E0,-2.298433632E-1,9.794080734E0
2.723957247E0,-1.046864748E0,-2.202665508E-1,9.808445930E0
2.725962820E0,-1.066018343E0,-2.394201756E-1,9.712677956E0
2.727973809E0,-1.061229944E0,-2.298433632E-1,9.607333183E0
2.729978080E0,-1.056441545E0,-2.250549644E-1,9.674370766E0
2.731971882E0,-1.104325533E0,-2.585737705E-1,9.784503937E0
2.733966414E0,-1.066018343E0,-2.106897533E-1,9.770138741E0
2.735962091E0,-9.702502489E-1,-1.963245422E-1,9.626486778E0
2.737959278E0,-1.022922635E0,-1.963245422E-1,9.578602791E0
2.739958236E0,-1.056441545E0,-2.202665508E-1,9.645640373E0
2.741959174E0,-1.051653147E0,-2.537853718E-1,9.760561943E0
2.743962195E0,-1.018134236E0,-2.681505978E-1,9.827599525E0
2.745967299E0,-1.022922635E0,-2.777273953E-1,9.774927139E0
2.747974434E0,-1.018134236E0,-2.777273953E-1,9.698312759E0
2.749983445E0,-1.070806742E0,-3.064578176E-1,9.664793968E0
2.751994122E0,-1.094748735E0,-2.920926213E-1,9.722254753E0
2.754006205E0,-1.085171938E0,-2.968810201E-1,9.779715538E0
2.756019382E0,-1.003769040E0,-3.016694188E-1,9.794080734E0
2.758033289E0,-1.013345838E0,-3.495534360E-1,9.760561943E0
2.760047559E0,-1.032499433E0,-3.495534360E-1,9.698312759E0
2.762059122E0,-1.003769040E0,-3.303998411E-1,9.640851974E0
2.764068289E0,-1.027711034E0,-3.447650373E-1,9.626486778E0
2.766073809E0,-1.027711034E0,-3.687070608E-1,9.616909981E0
2.768084747E0,-9.941922426E-1,-3.974374831E-1,9.597756386E0
2.770084955E0,-9.989806414E-1,-4.022258818E-1,9.621698380E0
2.772085372E0,-1.013345838E0,-4.548983276E-1,9.655217171E0
2.774086153E0,-1.042076349E0,-4.548983276E-1,9.731831551E0
2.776087507E0,-1.046864748E0,-4.405331016E-1,9.755773544E0
2.778089591E0,-1.042076349E0,-4.644751251E-1,9.750985146E0
2.780092507E0,-1.051653147E0,-4.644751251E-1,9.698312759E0
2.782096309E0,-1.051653147E0,-4.788403511E-1,9.660005569E0
2.784101049E0,-1.032499433E0,-4.740519226E-1,9.660005569E0
2.786106726E0,-1.037287831E0,-4.644751251E-1,9.674370766E0
2.788112403E0,-1.032499433E0,-5.027823448E-1,9.688735962E0
2.790118966E0,-1.018134236E0,-4.884171486E-1,9.664793968E0
2.792126309E0,-1.003769040E0,-4.548983276E-1,9.631275177E0
2.794134330E0,-1.027711034E0,-4.548983276E-1,9.640851974E0
2.796143757E0,-1.051653147E0,-4.453215301E-1,9.645640373E0
2.798155736E0,-1.066018343E0,-4.453215301E-1,9.660005569E0
2.800165007E0,-1.022922635E0,-4.357447028E-1,9.660005569E0
2.802173757E0,-1.051653147E0,-4.213795066E-1,9.674370766E0
2.804179330E0,-1.075595140E0,-4.165911078E-1,9.669582367E0
2.806184851E0,-1.104325533E0,-3.974374831E-1,9.655217171E0
2.808195789E0,-1.104325533E0,-4.213795066E-1,9.592967987E0
2.810195945E0,-1.089960337E0,-3.926490843E-1,9.564237595E0
2.812196309E0,-1.099537134E0,-3.926490843E-1,9.607333183E0
2.814197039E0,-1.118690729E0,-3.926490843E-1,9.660005569E0
2.816198341E0,-1.133055925E0,-3.495534360E-1,9.707889557E0
2.818200372E0,-1.123479128E0,-3.734954596E-1,9.693524361E0
2.820203236E0,-1.137844324E0,-3.639186621E-1,9.664793968E0
2.822206986E0,-1.152209520E0,-3.351882398E-1,9.636063576E0
2.824211674E0,-1.147421122E0,-3.351882398E-1,9.660005569E0
2.826216361E0,-1.142632723E0,-3.495534360E-1,9.679159164E0
2.828222039E0,-1.123479128E0,-3.351882398E-1,9.650428772E0
2.830228653E0,-1.123479128E0,-3.399766386E-1,9.631275177E0
2.832236101E0,-1.113902330E0,-3.064578176E-1,9.602544785E0
2.834244278E0,-1.094748735E0,-3.208230138E-1,9.612121582E0
2.836253080E0,-1.113902330E0,-3.351882398E-1,9.626486778E0
2.838262351E0,-1.118690729E0,-3.256114423E-1,9.631275177E0
2.840271882E0,-1.080383539E0,-3.208230138E-1,9.636063576E0
2.842281518E0,-1.075595140E0,-3.543418646E-1,9.640851974E0
2.844290320E0,-1.099537134E0,-3.495534360E-1,9.674370766E0
2.846295893E0,-1.094748735E0,-3.687070608E-1,9.679159164E0
2.848301414E0,-1.070806742E0,-3.591302633E-1,9.688735962E0
2.850304226E0,-1.075595140E0,-3.734954596E-1,9.693524361E0
2.852307247E0,-1.075595140E0,-3.878606856E-1,9.698312759E0
2.854310580E0,-1.061229944E0,-3.926490843E-1,9.688735962E0
2.856314278E0,-1.027711034E0,-4.070142806E-1,9.664793968E0
2.858318393E0,-1.032499433E0,-4.070142806E-1,9.693524361E0
2.860322976E0,-1.032499433E0,-4.213795066E-1,9.688735962E0
2.862330736E0,-9.894038439E-1,-4.118026793E-1,9.669582367E0
2.864338497E0,-9.798270464E-1,-4.309563041E-1,9.655217171E0
2.866346414E0,-1.013345838E0,-4.405331016E-1,9.664793968E0
2.868354434E0,-1.013345838E0,-4.405331016E-1,9.679159164E0
2.870367872E0,-9.941922426E-1,-4.596867263E-1,9.698312759E0
2.872368028E0,-9.798270464E-1,-4.644751251E-1,9.703101158E0
2.874368393E0,-9.798270464E-1,-4.548983276E-1,9.688735962E0
2.876369174E0,-9.702502489E-1,-4.644751251E-1,9.698312759E0
2.878370528E0,-9.367313981E-1,-4.596867263E-1,9.679159164E0
2.880372611E0,-9.654618502E-1,-4.644751251E-1,9.679159164E0
2.882375528E0,-9.558850527E-1,-4.501099288E-1,9.683947563E0
2.884379330E0,-9.654618502E-1,-4.596867263E-1,9.712677956E0
2.886384070E0,-9.558850527E-1,-4.644751251E-1,9.717466354E0
2.888389747E0,-9.654618502E-1,-4.740519226E-1,9.765350342E0
2.890396309E0,-9.846154451E-1,-4.596867263E-1,9.760561943E0
2.892403653E0,-9.510966539E-1,-4.309563041E-1,9.746196747E0
2.894411674E0,-9.606734514E-1,-4.309563041E-1,9.717466354E0
2.896420268E0,-9.750386477E-1,-4.261679053E-1,9.669582367E0
2.898429278E0,-9.894038439E-1,-4.070142806E-1,9.602544785E0
2.900439434E0,-9.989806414E-1,-3.974374831E-1,9.569025993E0
2.902449591E0,-9.989806414E-1,-3.782838583E-1,9.683947563E0
2.904456882E0,-9.798270464E-1,-3.734954596E-1,9.798869133E0
2.906462403E0,-9.894038439E-1,-3.734954596E-1,9.870695114E0
2.908465216E0,-9.510966539E-1,-3.687070608E-1,9.870695114E0
2.910468236E0,-9.894038439E-1,-3.687070608E-1,9.885060310E0
2.912471570E0,-1.008557439E0,-3.543418646E-1,9.865906715E0
2.914475268E0,-9.798270464E-1,-3.208230138E-1,9.760561943E0
2.916479382E0,-9.415197968E-1,-2.968810201E-1,9.621698380E0
2.918483966E0,-9.367313981E-1,-3.064578176E-1,9.549872398E0
2.920489018E0,-9.127894044E-1,-3.016694188E-1,9.588179588E0
2.922494539E0,-9.080010056E-1,-3.303998411E-1,9.693524361E0
2.924500528E0,-9.175778031E-1,-3.112462163E-1,9.841964722E0
2.926506934E0,-9.080010056E-1,-3.208230138E-1,9.889848709E0
2.928513705E0,-9.080010056E-1,-3.160346150E-1,9.803657532E0
2.930520789E0,-9.415197968E-1,-3.064578176E-1,9.717466354E0
2.932528132E0,-9.702502489E-1,-3.256114423E-1,9.664793968E0
2.934535632E0,-9.798270464E-1,-3.591302633E-1,9.655217171E0
2.936543184E0,-9.367313981E-1,-3.351882398E-1,9.755773544E0
2.938556153E0,-9.367313981E-1,-3.639186621E-1,9.875483513E0
2.940556778E0,-9.271546006E-1,-3.543418646E-1,9.904213905E0
2.942557559E0,-9.080010056E-1,-3.591302633E-1,9.885060310E0
2.944558705E0,-9.271546006E-1,-3.447650373E-1,9.774927139E0
2.946560372E0,-9.463081956E-1,-3.303998411E-1,9.669582367E0
2.948562716E0,-9.415197968E-1,-3.495534360E-1,9.636063576E0
2.950565789E0,-9.415197968E-1,-3.734954596E-1,9.636063576E0
2.952569695E0,-9.271546006E-1,-3.639186621E-1,9.683947563E0
2.954574434E0,-8.936358094E-1,-3.782838583E-1,9.765350342E0
2.956580007E0,-9.175778031E-1,-3.687070608E-1,9.784503937E0
2.958586414E0,-9.223662019E-1,-3.687070608E-1,9.808445930E0
2.960593549E0,-9.319429994E-1,-3.687070608E-1,9.750985146E0
2.962601361E0,-9.367313981E-1,-3.639186621E-1,9.674370766E0
2.964609695E0,-9.175778031E-1,-3.734954596E-1,9.645640373E0
2.966618445E0,-9.223662019E-1,-3.639186621E-1,9.626486778E0
2.968627195E0,-9.367313981E-1,-3.782838583E-1,9.727043152E0
2.970636101E0,-9.175778031E-1,-3.687070608E-1,9.784503937E0
2.972642299E0,-9.223662019E-1,-3.591302633E-1,9.846753120E0
2.974648601E0,-9.510966539E-1,-3.639186621E-1,9.841964722E0
2.976654955E0,-9.271546006E-1,-3.303998411E-1,9.846753120E0
2.978666726E0,-9.175778031E-1,-3.256114423E-1,9.794080734E0
2.980667820E0,-9.319429994E-1,-3.351882398E-1,9.746196747E0
2.982669070E0,-9.127894044E-1,-3.112462163E-1,9.731831551E0
2.984670632E0,-8.696937561E-1,-2.825157940E-1,9.703101158E0
2.986672664E0,-8.936358094E-1,-2.777273953E-1,9.750985146E0
2.988675268E0,-8.936358094E-1,-2.585737705E-1,9.803657532E0
2.990678549E0,-8.744821548E-1,-2.537853718E-1,9.798869133E0
2.992682559E0,-8.840589523E-1,-2.729389966E-1,9.803657532E0
2.994687351E0,-8.840589523E-1,-2.442085743E-1,9.822811127E0
2.996692924E0,-8.840589523E-1,-2.346317619E-1,9.813234329E0
2.998699226E0,-8.649053574E-1,-2.250549644E-1,9.798869133E0
3.000706205E0,-8.792705536E-1,-2.442085743E-1,9.818022728E0
3.002713809E0,-8.792705536E-1,-2.250549644E-1,9.837176323E0
3.004721934E0,-8.457517624E-1,-2.059013397E-1,9.846753120E0
3.006730059E0,-8.696937561E-1,-2.489969730E-1,9.846753120E0
3.008738445E0,-8.696937561E-1,-2.489969730E-1,9.841964722E0
3.010746986E0,-8.601169586E-1,-2.394201756E-1,9.841964722E0
3.012752820E0,-8.792705536E-1,-2.537853718E-1,9.861118317E0
3.014759018E0,-8.409633636E-1,-2.011129409E-1,9.870695114E0
3.016765893E0,-8.218097091E-1,-2.298433632E-1,9.880271912E0
3.018778184E0,-8.649053574E-1,-2.681505978E-1,9.822811127E0
3.020778861E0,-8.505401611E-1,-2.729389966E-1,9.712677956E0
3.022779695E0,-8.792705536E-1,-2.729389966E-1,9.612121582E0
3.024780893E0,-8.792705536E-1,-2.920926213E-1,9.645640373E0
3.026782611E0,-8.505401611E-1,-2.920926213E-1,9.765350342E0
3.028784955E0,-9.032126069E-1,-3.639186621E-1,9.798869133E0
3.030788028E0,-8.936358094E-1,-3.734954596E-1,9.841964722E0
3.032791934E0,-8.936358094E-1,-3.687070608E-1,9.932944298E0
3.034796674E0,-9.367313981E-1,-4.070142806E-1,1.004307747E1
3.036802247E0,-9.463081956E-1,-4.261679053E-1,9.971251488E0
3.038808653E0,-9.080010056E-1,-4.022258818E-1,9.707889557E0
3.040815789E0,-8.744821548E-1,-3.878606856E-1,9.501988411E0
3.042827507E0,-9.463081956E-1,-3.974374831E-1,9.468469620E0
3.044839226E0,-9.654618502E-1,-4.405331016E-1,9.578602791E0
3.046848236E0,-9.367313981E-1,-4.453215301E-1,9.784503937E0
3.048856622E0,-9.223662019E-1,-4.213795066E-1,9.875483513E0
3.050862143E0,-9.463081956E-1,-4.453215301E-1,9.851541519E0
3.052868497E0,-9.894038439E-1,-4.261679053E-1,9.731831551E0
3.054865684E0,-1.042076349E0,-4.309563041E-1,9.616909981E0
3.056863497E0,-1.080383539E0,-4.453215301E-1,9.549872398E0
3.058862195E0,-1.051653147E0,-4.501099288E-1,9.540295601E0
3.060862039E0,-1.032499433E0,-4.453215301E-1,9.650428772E0
3.062863184E0,-1.051653147E0,-4.501099288E-1,9.765350342E0
3.064865789E0,-1.089960337E0,-4.405331016E-1,9.779715538E0
3.066869903E0,-1.089960337E0,-4.070142806E-1,9.717466354E0
3.068875528E0,-1.118690729E0,-3.926490843E-1,9.660005569E0
3.070882611E0,-1.166574836E0,-3.926490843E-1,9.607333183E0
3.072890997E0,-1.152209520E0,-4.022258818E-1,9.583391190E0
3.074900528E0,-1.128267527E0,-4.118026793E-1,9.573814392E0
3.076910997E0,-1.147421122E0,-4.118026793E-1,9.602544785E0
3.078922195E0,-1.142632723E0,-3.974374831E-1,9.664793968E0
3.080934747E0,-1.142632723E0,-3.782838583E-1,9.688735962E0
3.082947299E0,-1.142632723E0,-3.687070608E-1,9.688735962E0
3.084956518E0,-1.156997919E0,-3.639186621E-1,9.626486778E0
3.086962091E0,-1.128267527E0,-3.687070608E-1,9.530718803E0
3.088973080E0,-1.128267527E0,-3.734954596E-1,9.545084000E0
3.090973184E0,-1.128267527E0,-3.734954596E-1,9.569025993E0
3.092973497E0,-1.142632723E0,-3.878606856E-1,9.588179588E0
3.094974226E0,-1.133055925E0,-3.830722570E-1,9.626486778E0
3.096975528E0,-1.137844324E0,-4.022258818E-1,9.655217171E0
3.098977559E0,-1.152209520E0,-3.878606856E-1,9.683947563E0
3.100980424E0,-1.152209520E0,-3.878606856E-1,9.683947563E0
3.102984174E0,-1.147421122E0,-4.118026793E-1,9.636063576E0
3.104988861E0,-1.123479128E0,-3.878606856E-1,9.640851974E0
3.106994486E0,-1.109113932E0,-3.830722570E-1,9.640851974E0
3.109000997E0,-1.113902330E0,-3.878606856E-1,9.650428772E0
3.111008341E0,-1.085171938E0,-3.687070608E-1,9.636063576E0
3.113016414E0,-1.089960337E0,-3.830722570E-1,9.621698380E0
3.115025059E0,-1.094748735E0,-3.830722570E-1,9.621698380E0
3.117034122E0,-1.089960337E0,-3.734954596E-1,9.640851974E0
3.119043445E0,-1.085171938E0,-3.687070608E-1,9.669582367E0
3.121052872E0,-1.080383539E0,-3.591302633E-1,9.674370766E0
3.123062039E0,-1.080383539E0,-3.687070608E-1,9.664793968E0
3.125067559E0,-1.042076349E0,-3.447650373E-1,9.664793968E0
3.127070372E0,-1.046864748E0,-3.447650373E-1,9.688735962E0
3.129073393E0,-1.051653147E0,-3.734954596E-1,9.688735962E0
3.131076726E0,-1.042076349E0,-3.591302633E-1,9.703101158E0
3.133080424E0,-1.018134236E0,-3.591302633E-1,9.674370766E0
3.135084539E0,-1.037287831E0,-3.399766386E-1,9.674370766E0
3.137089122E0,-1.042076349E0,-3.495534360E-1,9.683947563E0
3.139094174E0,-9.989806414E-1,-3.639186621E-1,9.707889557E0
3.141099695E0,-1.022922635E0,-3.639186621E-1,9.727043152E0
3.143105684E0,-1.032499433E0,-3.830722570E-1,9.736619949E0
3.145112091E0,-9.846154451E-1,-3.447650373E-1,9.755773544E0
3.147118861E0,-9.750386477E-1,-3.495534360E-1,9.741408348E0
3.149125632E0,-9.702502489E-1,-3.543418646E-1,9.750985146E0
3.151132664E0,-9.558850527E-1,-3.543418646E-1,9.731831551E0
3.153139903E0,-9.415197968E-1,-3.303998411E-1,9.683947563E0
3.155147247E0,-9.271546006E-1,-3.447650373E-1,9.712677956E0
3.157155528E0,-9.319429994E-1,-3.208230138E-1,9.727043152E0
3.159166049E0,-9.175778031E-1,-3.303998411E-1,9.746196747E0
3.161167507E0,-9.175778031E-1,-3.160346150E-1,9.798869133E0
3.163169122E0,-9.080010056E-1,-3.303998411E-1,9.798869133E0
3.165171049E0,-9.127894044E-1,-3.208230138E-1,9.794080734E0
3.167173393E0,-9.175778031E-1,-3.112462163E-1,9.789292336E0
3.169176257E0,-9.032126069E-1,-3.112462163E-1,9.779715538E0
3.171179747E0,-8.553285599E-1,-3.160346150E-1,9.794080734E0
3.173183914E0,-8.744821548E-1,-2.681505978E-1,9.813234329E0
3.175188809E0,-8.553285599E-1,-2.873041928E-1,9.736619949E0
3.177194434E0,-8.601169586E-1,-3.208230138E-1,9.703101158E0
3.179200736E0,-8.840589523E-1,-2.777273953E-1,9.736619949E0
3.181207664E0,-8.505401611E-1,-2.681505978E-1,9.861118317E0
3.183215111E0,-8.122329116E-1,-2.298433632E-1,9.952097893E0
3.185222976E0,-7.739257216E-1,-2.968810201E-1,9.995193481E0
3.187230841E0,-8.457517624E-1,-2.681505978E-1,9.904213905E0
3.189238966E0,-8.361749649E-1,-2.777273953E-1,9.789292336E0
3.191247195E0,-7.595604658E-1,-2.298433632E-1,9.789292336E0
3.193260841E0,-8.170213103E-1,-2.394201756E-1,9.822811127E0
3.195268184E0,-8.265981078E-1,-2.873041928E-1,9.703101158E0
3.197276726E0,-6.973112226E-1,-2.346317619E-1,9.621698380E0
3.199273028E0,-7.835025191E-1,-2.633621991E-1,9.784503937E0
3.201269695E0,-8.649053574E-1,-3.112462163E-1,1.000477028E1
3.203267039E0,-8.170213103E-1,-2.873041928E-1,1.007659626E1
3.205265372E0,-7.356184721E-1,-2.873041928E-1,9.999981880E0
3.207264955E0,-8.026561141E-1,-2.920926213E-1,9.832387924E0
3.209265945E0,-8.505401611E-1,-3.112462163E-1,9.722254753E0
3.211268497E0,-8.170213103E-1,-3.112462163E-1,9.722254753E0
3.213272664E0,-8.026561141E-1,-3.112462163E-1,9.798869133E0
3.215278445E0,-8.074445128E-1,-3.495534360E-1,9.841964722E0
3.217285736E0,-7.882909179E-1,-3.208230138E-1,9.880271912E0
3.219294434E0,-7.835025191E-1,-3.064578176E-1,9.947309494E0
3.221304330E0,-8.457517624E-1,-3.256114423E-1,9.928155899E0
3.223315216E0,-8.409633636E-1,-3.399766386E-1,9.803657532E0
3.225326830E0,-7.882909179E-1,-3.208230138E-1,9.660005569E0
3.227338914E0,-8.409633636E-1,-3.543418646E-1,9.674370766E0
3.229351205E0,-8.792705536E-1,-3.639186621E-1,9.707889557E0
3.231361830E0,-8.649053574E-1,-3.351882398E-1,9.779715538E0
3.233373080E0,-8.696937561E-1,-3.447650373E-1,9.832387924E0
3.235365372E0,-8.792705536E-1,-3.208230138E-1,9.865906715E0
3.237358497E0,-9.032126069E-1,-3.543418646E-1,9.861118317E0
3.239352872E0,-8.840589523E-1,-3.495534360E-1,9.784503937E0
3.241348914E0,-8.840589523E-1,-3.447650373E-1,9.707889557E0
3.243346934E0,-9.223662019E-1,-3.495534360E-1,9.679159164E0
3.245347143E0,-9.127894044E-1,-3.351882398E-1,9.717466354E0
3.247349695E0,-9.223662019E-1,-3.351882398E-1,9.770138741E0
3.249354591E0,-9.463081956E-1,-3.495534360E-1,9.803657532E0
3.251361778E0,-9.463081956E-1,-3.543418646E-1,9.813234329E0
3.253371101E0,-9.032126069E-1,-3.256114423E-1,9.779715538E0
3.255382299E0,-9.510966539E-1,-3.399766386E-1,9.784503937E0
3.257395111E0,-9.798270464E-1,-3.447650373E-1,9.746196747E0
3.259409174E0,-9.415197968E-1,-3.303998411E-1,9.669582367E0
3.261425007E0,-9.415197968E-1,-3.399766386E-1,9.640851974E0
3.263440841E0,-9.798270464E-1,-3.543418646E-1,9.650428772E0
3.265456257E0,-9.798270464E-1,-3.782838583E-1,9.693524361E0
3.267461778E0,-9.798270464E-1,-3.543418646E-1,9.736619949E0
3.269464591E0,-9.798270464E-1,-3.639186621E-1,9.789292336E0
3.271467611E0,-1.008557439E0,-3.687070608E-1,9.750985146E0
3.273470945E0,-9.894038439E-1,-3.639186621E-1,9.746196747E0
3.275474643E0,-9.989806414E-1,-3.782838583E-1,9.707889557E0
3.277478757E0,-1.018134236E0,-3.687070608E-1,9.698312759E0
3.279483341E0,-1.008557439E0,-3.687070608E-1,9.693524361E0
3.281488393E0,-9.989806414E-1,-3.974374831E-1,9.683947563E0
3.283493914E0,-9.989806414E-1,-3.687070608E-1,9.717466354E0
3.285499903E0,-1.008557439E0,-3.830722570E-1,9.712677956E0
3.287506309E0,-1.013345838E0,-3.974374831E-1,9.703101158E0
3.289513080E0,-1.003769040E0,-3.830722570E-1,9.683947563E0
3.291520164E0,-1.018134236E0,-3.974374831E-1,9.669582367E0
3.293527507E0,-1.003769040E0,-4.022258818E-1,9.674370766E0
3.295535007E0,-9.894038439E-1,-4.070142806E-1,9.693524361E0
3.297542559E0,-9.941922426E-1,-4.070142806E-1,9.703101158E0
3.299555528E0,-1.018134236E0,-4.022258818E-1,9.669582367E0
3.301556153E0,-1.032499433E0,-4.118026793E-1,9.660005569E0
3.303556934E0,-1.037287831E0,-4.118026793E-1,9.688735962E0
3.305558080E0,-1.027711034E0,-4.165911078E-1,9.698312759E0
3.307559747E0,-1.013345838E0,-4.309563041E-1,9.683947563E0
3.309562091E0,-1.037287831E0,-4.261679053E-1,9.707889557E0
3.311565164E0,-1.046864748E0,-4.070142806E-1,9.698312759E0
3.313569070E0,-1.046864748E0,-4.070142806E-1,9.674370766E0
3.315573809E0,-1.027711034E0,-4.165911078E-1,9.664793968E0
3.317579382E0,-1.051653147E0,-4.165911078E-1,9.688735962E0
3.319585789E0,-1.037287831E0,-4.165911078E-1,9.703101158E0
3.321592976E0,-1.037287831E0,-4.022258818E-1,9.698312759E0
3.323600841E0,-1.046864748E0,-4.118026793E-1,9.693524361E0
3.325609226E0,-1.027711034E0,-4.165911078E-1,9.664793968E0
3.327618028E0,-1.027711034E0,-4.165911078E-1,9.655217171E0
3.329626830E0,-1.042076349E0,-4.070142806E-1,9.655217171E0
3.331635736E0,-1.046864748E0,-4.118026793E-1,9.674370766E0
3.333641934E0,-1.027711034E0,-4.022258818E-1,9.650428772E0
3.335648184E0,-1.066018343E0,-4.165911078E-1,9.679159164E0
3.337654486E0,-1.075595140E0,-3.974374831E-1,9.688735962E0
3.339666205E0,-1.066018343E0,-4.070142806E-1,9.703101158E0
3.341667247E0,-1.070806742E0,-4.022258818E-1,9.688735962E0
3.343668445E0,-1.075595140E0,-4.022258818E-1,9.679159164E0
3.345669955E0,-1.056441545E0,-4.022258818E-1,9.664793968E0
3.347671934E0,-1.056441545E0,-3.830722570E-1,9.683947563E0
3.349674486E0,-1.070806742E0,-3.926490843E-1,9.674370766E0
3.351677716E0,-1.051653147E0,-3.734954596E-1,9.674370766E0
3.353681726E0,-1.042076349E0,-3.878606856E-1,9.655217171E0
3.355686518E0,-1.061229944E0,-3.974374831E-1,9.669582367E0
3.357692091E0,-1.066018343E0,-3.878606856E-1,9.683947563E0
3.359698445E0,-1.027711034E0,-3.782838583E-1,9.698312759E0
3.361705476E0,-1.027711034E0,-3.782838583E-1,9.679159164E0
3.363713132E0,-1.051653147E0,-3.830722570E-1,9.660005569E0
3.365721309E0,-1.037287831E0,-3.639186621E-1,9.664793968E0
3.367729486E0,-1.032499433E0,-3.830722570E-1,9.693524361E0
3.369737924E0,-1.037287831E0,-3.734954596E-1,9.693524361E0
3.371746518E0,-1.022922635E0,-3.495534360E-1,9.703101158E0
3.373752403E0,-9.941922426E-1,-3.639186621E-1,9.683947563E0
3.375758653E0,-1.037287831E0,-3.543418646E-1,9.698312759E0
3.377766726E0,-1.018134236E0,-3.734954596E-1,9.707889557E0
3.379772716E0,-9.989806414E-1,-3.591302633E-1,9.717466354E0
3.381778289E0,-1.013345838E0,-3.447650373E-1,9.707889557E0
3.383783809E0,-9.989806414E-1,-3.734954596E-1,9.717466354E0
3.385794747E0,-9.846154451E-1,-3.351882398E-1,9.731831551E0
3.387794955E0,-9.989806414E-1,-3.447650373E-1,9.727043152E0
3.389795372E0,-9.846154451E-1,-3.351882398E-1,9.731831551E0
3.391796153E0,-9.510966539E-1,-3.399766386E-1,9.722254753E0
3.393797507E0,-9.606734514E-1,-3.256114423E-1,9.717466354E0
3.395799591E0,-9.846154451E-1,-3.303998411E-1,9.736619949E0
3.397802507E0,-9.606734514E-1,-3.112462163E-1,9.736619949E0
3.399806309E0,-9.510966539E-1,-3.016694188E-1,9.736619949E0
3.401811049E0,-9.510966539E-1,-3.351882398E-1,9.741408348E0
3.403820684E0,-9.415197968E-1,-3.351882398E-1,9.736619949E0
3.405830320E0,-9.558850527E-1,-3.208230138E-1,9.765350342E0
3.407840372E0,-9.223662019E-1,-3.256114423E-1,9.755773544E0
3.409850632E0,-9.415197968E-1,-3.303998411E-1,9.784503937E0
3.411858184E0,-9.223662019E-1,-3.351882398E-1,9.750985146E0
3.413866622E0,-9.032126069E-1,-3.208230138E-1,9.750985146E0
3.415865059E0,-9.415197968E-1,-3.303998411E-1,9.750985146E0
3.417864070E0,-9.271546006E-1,-3.160346150E-1,9.789292336E0
3.419863861E0,-9.032126069E-1,-3.303998411E-1,9.770138741E0
3.421864643E0,-9.080010056E-1,-3.160346150E-1,9.779715538E0
3.423866570E0,-9.223662019E-1,-3.160346150E-1,9.765350342E0
3.425869747E0,-8.984242082E-1,-3.303998411E-1,9.750985146E0
3.427874226E0,-8.888474107E-1,-3.351882398E-1,9.765350342E0
3.429880007E0,-9.127894044E-1,-3.160346150E-1,9.765350342E0
3.431887039E0,-9.223662019E-1,-3.303998411E-1,9.755773544E0
3.433895164E0,-9.271546006E-1,-3.303998411E-1,9.750985146E0
3.435904278E0,-9.223662019E-1,-3.399766386E-1,9.741408348E0
3.437914174E0,-9.080010056E-1,-3.303998411E-1,9.770138741E0
3.439924643E0,-9.175778031E-1,-3.351882398E-1,9.755773544E0
3.441936414E0,-9.319429994E-1,-3.351882398E-1,9.746196747E0
3.443948184E0,-9.175778031E-1,-3.351882398E-1,9.741408348E0
3.445955945E0,-9.271546006E-1,-3.112462163E-1,9.741408348E0
3.447961518E0,-9.463081956E-1,-3.208230138E-1,9.774927139E0
3.449972507E0,-9.463081956E-1,-3.256114423E-1,9.779715538E0
3.451972611E0,-9.319429994E-1,-3.351882398E-1,9.760561943E0
3.453972924E0,-9.319429994E-1,-3.303998411E-1,9.750985146E0
3.455973653E0,-9.606734514E-1,-3.256114423E-1,9.750985146E0
3.457974955E0,-9.606734514E-1,-3.399766386E-1,9.736619949E0
3.459976986E0,-9.558850527E-1,-3.351882398E-1,9.746196747E0
3.461979851E0,-9.606734514E-1,-3.399766386E-1,9.727043152E0
3.463983601E0,-9.510966539E-1,-3.351882398E-1,9.736619949E0
3.465988289E0,-9.558850527E-1,-3.303998411E-1,9.731831551E0
3.467993914E0,-9.654618502E-1,-3.734954596E-1,9.736619949E0
3.470000424E0,-9.654618502E-1,-3.687070608E-1,9.736619949E0
3.472007768E0,-9.606734514E-1,-3.687070608E-1,9.741408348E0
3.474015841E0,-9.846154451E-1,-3.591302633E-1,9.746196747E0
3.476024486E0,-9.702502489E-1,-3.734954596E-1,9.741408348E0
3.478033549E0,-9.702502489E-1,-3.734954596E-1,9.727043152E0
3.480043184E0,-9.750386477E-1,-3.878606856E-1,9.722254753E0
3.482052820E0,-9.654618502E-1,-3.591302633E-1,9.717466354E0
3.484061466E0,-9.654618502E-1,-3.830722570E-1,9.722254753E0
3.486067039E0,-9.798270464E-1,-3.830722570E-1,9.707889557E0
3.488072559E0,-9.702502489E-1,-3.687070608E-1,9.712677956E0
3.490075372E0,-9.750386477E-1,-3.734954596E-1,9.727043152E0
3.492078393E0,-9.798270464E-1,-3.782838583E-1,9.722254753E0
3.494081726E0,-9.654618502E-1,-3.639186621E-1,9.731831551E0
3.496085424E0,-9.702502489E-1,-3.782838583E-1,9.717466354E0
3.498089539E0,-9.750386477E-1,-3.591302633E-1,9.722254753E0
3.500094122E0,-9.798270464E-1,-3.878606856E-1,9.731831551E0
3.502099174E0,-9.606734514E-1,-3.782838583E-1,9.712677956E0
3.504104695E0,-9.654618502E-1,-3.639186621E-1,9.707889557E0
3.506110684E0,-9.846154451E-1,-3.830722570E-1,9.717466354E0
3.508117091E0,-9.510966539E-1,-3.591302633E-1,9.741408348E0
3.510123497E0,-9.654618502E-1,-3.639186621E-1,9.746196747E0
3.512130268E0,-9.798270464E-1,-3.591302633E-1,9.741408348E0
3.514137299E0,-9.606734514E-1,-3.639186621E-1,9.746196747E0
3.516144539E0,-9.367313981E-1,-3.591302633E-1,9.727043152E0
3.518152820E0,-9.606734514E-1,-3.495534360E-1,9.750985146E0
3.520161570E0,-9.654618502E-1,-3.447650373E-1,9.741408348E0
3.522166986E0,-9.558850527E-1,-3.399766386E-1,9.712677956E0
3.524177820E0,-9.510966539E-1,-3.351882398E-1,9.717466354E0
3.526178080E0,-9.654618502E-1,-3.303998411E-1,9.722254753E0
3.528178549E0,-9.463081956E-1,-3.351882398E-1,9.741408348E0
3.530179382E0,-9.558850527E-1,-3.256114423E-1,9.755773544E0
3.532180789E0,-9.558850527E-1,-3.399766386E-1,9.755773544E0
3.534182872E0,-9.319429994E-1,-3.208230138E-1,9.741408348E0
3.536185789E0,-9.415197968E-1,-3.208230138E-1,9.755773544E0
3.538189591E0,-9.654618502E-1,-3.399766386E-1,9.736619949E0
3.540194330E0,-9.367313981E-1,-3.208230138E-1,9.755773544E0
3.542200007E0,-9.319429994E-1,-3.208230138E-1,9.750985146E0
3.544206570E0,-9.558850527E-1,-3.303998411E-1,9.760561943E0
3.546213914E0,-9.319429994E-1,-3.208230138E-1,9.750985146E0
3.548221934E0,-9.367313981E-1,-3.064578176E-1,9.750985146E0
3.550230528E0,-9.415197968E-1,-3.447650373E-1,9.770138741E0
3.552239539E0,-9.510966539E-1,-3.351882398E-1,9.774927139E0
3.554248809E0,-9.319429994E-1,-3.351882398E-1,9.746196747E0
3.556258184E0,-9.510966539E-1,-3.591302633E-1,9.731831551E0
3.558266934E0,-9.558850527E-1,-3.543418646E-1,9.736619949E0
3.560272455E0,-9.319429994E-1,-3.543418646E-1,9.750985146E0
3.562275268E0,-9.463081956E-1,-3.495534360E-1,9.770138741E0
3.564278289E0,-9.463081956E-1,-3.543418646E-1,9.755773544E0
3.566281622E0,-9.415197968E-1,-3.639186621E-1,9.750985146E0
3.568285320E0,-9.367313981E-1,-3.591302633E-1,9.741408348E0
3.570289434E0,-9.510966539E-1,-3.639186621E-1,9.736619949E0
3.572294018E0,-9.463081956E-1,-3.543418646E-1,9.736619949E0
3.574299070E0,-9.750386477E-1,-3.639186621E-1,9.750985146E0
3.576304591E0,-9.367313981E-1,-3.687070608E-1,9.727043152E0
3.578310580E0,-9.463081956E-1,-3.687070608E-1,9.755773544E0
3.580316986E0,-9.750386477E-1,-3.591302633E-1,9.746196747E0
3.582323757E0,-9.558850527E-1,-3.639186621E-1,9.736619949E0
3.584334851E0,-9.654618502E-1,-3.591302633E-1,9.712677956E0
3.586345945E0,-9.702502489E-1,-3.591302633E-1,9.722254753E0
3.588350216E0,-9.846154451E-1,-3.687070608E-1,9.717466354E0
3.590359903E0,-9.702502489E-1,-3.447650373E-1,9.727043152E0
3.592361309E0,-9.894038439E-1,-3.447650373E-1,9.727043152E0
3.594362872E0,-9.989806414E-1,-3.495534360E-1,9.712677956E0
3.596364747E0,-9.941922426E-1,-3.447650373E-1,9.717466354E0
3.598367039E0,-9.894038439E-1,-3.687070608E-1,9.731831551E0
3.600369851E0,-9.989806414E-1,-3.495534360E-1,9.722254753E0
3.602373289E0,-9.702502489E-1,-3.447650373E-1,9.722254753E0
3.604377403E0,-9.941922426E-1,-3.447650373E-1,9.717466354E0
3.606382247E0,-9.894038439E-1,-3.495534360E-1,9.717466354E0
3.608387820E0,-9.846154451E-1,-3.447650373E-1,9.707889557E0
3.610394070E0,-9.941922426E-1,-3.351882398E-1,9.731831551E0
3.612400945E0,-9.750386477E-1,-3.399766386E-1,9.727043152E0
3.614408393E0,-9.750386477E-1,-3.447650373E-1,9.741408348E0
3.616416309E0,-9.750386477E-1,-3.543418646E-1,9.731831551E0
3.618424591E0,-9.846154451E-1,-3.495534360E-1,9.736619949E0
3.620433080E0,-9.894038439E-1,-3.447650373E-1,9.727043152E0
3.622442611E0,-9.750386477E-1,-3.447650373E-1,9.736619949E0
3.624452143E0,-9.846154451E-1,-3.399766386E-1,9.722254753E0
3.626455736E0,-9.846154451E-1,-3.639186621E-1,9.717466354E0
3.628459382E0,-9.750386477E-1,-3.495534360E-1,9.717466354E0
3.630463132E0,-9.750386477E-1,-3.734954596E-1,9.727043152E0
3.632467091E0,-9.798270464E-1,-3.639186621E-1,9.736619949E0
3.634471309E0,-9.750386477E-1,-3.495534360E-1,9.731831551E0
3.636475841E0,-9.894038439E-1,-3.639186621E-1,9.731831551E0
3.638480684E0,-9.798270464E-1,-3.782838583E-1,9.731831551E0
3.640485841E0,-9.941922426E-1,-3.639186621E-1,9.736619949E0
3.642491361E0,-9.989806414E-1,-3.591302633E-1,9.727043152E0
3.644497195E0,-9.798270464E-1,-3.830722570E-1,9.727043152E0
3.646503341E0,-9.798270464E-1,-3.830722570E-1,9.688735962E0
3.648509747E0,-9.846154451E-1,-3.974374831E-1,9.717466354E0
3.650516361E0,-9.894038439E-1,-3.830722570E-1,9.712677956E0
3.652523132E0,-9.989806414E-1,-3.782838583E-1,9.703101158E0
3.654530007E0,-9.989806414E-1,-3.830722570E-1,9.698312759E0
3.656536934E0,-9.989806414E-1,-3.878606856E-1,9.717466354E0
3.658541153E0,-9.894038439E-1,-3.639186621E-1,9.722254753E0
3.660545528E0,-9.941922426E-1,-3.687070608E-1,9.717466354E0
3.662550111E0,-1.008557439E0,-3.878606856E-1,9.707889557E0
3.664554955E0,-1.008557439E0,-3.878606856E-1,9.712677956E0
3.666560059E0,-1.013345838E0,-3.782838583E-1,9.712677956E0
3.668565424E0,-1.018134236E0,-3.687070608E-1,9.722254753E0
3.670571049E0,-1.003769040E0,-3.687070608E-1,9.727043152E0
3.672576934E0,-9.989806414E-1,-3.543418646E-1,9.698312759E0
3.674583028E0,-1.027711034E0,-3.447650373E-1,9.683947563E0
3.676589330E0,-1.037287831E0,-3.351882398E-1,9.703101158E0
3.678595789E0,-1.042076349E0,-3.447650373E-1,9.698312759E0
3.680602351E0,-1.018134236E0,-3.399766386E-1,9.707889557E0
3.682608966E0,-1.027711034E0,-3.351882398E-1,9.727043152E0
3.684620997E0,-1.022922635E0,-3.591302633E-1,9.717466354E0
3.686622299E0,-1.027711034E0,-3.495534360E-1,9.707889557E0
3.688623757E0,-1.037287831E0,-3.351882398E-1,9.703101158E0
3.690625528E0,-1.032499433E0,-3.351882398E-1,9.688735962E0
3.692627716E0,-1.027711034E0,-3.447650373E-1,9.703101158E0
3.694630476E0,-1.046864748E0,-3.399766386E-1,9.712677956E0
3.696633861E0,-1.027711034E0,-3.447650373E-1,9.703101158E0
3.698638861E0,-1.027711034E0,-3.399766386E-1,9.707889557E0
3.700645424E0,-1.027711034E0,-3.495534360E-1,9.683947563E0
3.702652559E0,-1.027711034E0,-3.399766386E-1,9.669582367E0
3.704660164E0,-1.046864748E0,-3.591302633E-1,9.655217171E0
3.706668132E0,-1.046864748E0,-3.639186621E-1,9.674370766E0
3.708676361E0,-1.032499433E0,-3.495534360E-1,9.693524361E0
3.710684747E0,-1.032499433E0,-3.543418646E-1,9.698312759E0
3.712693184E0,-1.042076349E0,-3.782838583E-1,9.698312759E0
3.714700059E0,-1.032499433E0,-3.639186621E-1,9.707889557E0
3.716705580E0,-1.027711034E0,-3.830722570E-1,9.698312759E0
3.718708393E0,-1.032499433E0,-3.878606856E-1,9.698312759E0
3.720711414E0,-1.003769040E0,-3.878606856E-1,9.698312759E0
3.722714747E0,-1.022922635E0,-3.878606856E-1,9.674370766E0
3.724718445E0,-1.018134236E0,-3.926490843E-1,9.698312759E0
3.726722559E0,-1.013345838E0,-3.878606856E-1,9.707889557E0
3.728727143E0,-1.018134236E0,-4.022258818E-1,9.722254753E0
3.730732195E0,-9.941922426E-1,-4.070142806E-1,9.746196747E0
3.732737716E0,-9.894038439E-1,-4.022258818E-1,9.722254753E0
3.734743705E0,-9.894038439E-1,-3.974374831E-1,9.679159164E0
3.736750424E0,-9.702502489E-1,-4.118026793E-1,9.669582367E0
3.738757143E0,-9.798270464E-1,-4.118026793E-1,9.688735962E0
3.740764174E0,-9.894038439E-1,-4.022258818E-1,9.727043152E0
3.742771466E0,-9.606734514E-1,-3.878606856E-1,9.736619949E0
3.744778914E0,-9.654618502E-1,-3.878606856E-1,9.722254753E0
3.746786414E0,-9.510966539E-1,-3.926490843E-1,9.722254753E0
3.748799330E0,-9.798270464E-1,-3.830722570E-1,9.736619949E0
3.750800007E0,-9.558850527E-1,-3.734954596E-1,9.750985146E0
3.752800841E0,-9.558850527E-1,-3.639186621E-1,9.727043152E0
3.754802039E0,-9.510966539E-1,-3.926490843E-1,9.712677956E0
3.756803757E0,-9.702502489E-1,-3.639186621E-1,9.727043152E0
3.758806101E0,-9.654618502E-1,-3.591302633E-1,9.727043152E0
3.760809174E0,-9.510966539E-1,-3.495534360E-1,9.755773544E0
3.762813080E0,-9.558850527E-1,-3.495534360E-1,9.774927139E0
3.764820632E0,-9.463081956E-1,-3.495534360E-1,9.770138741E0
3.766828184E0,-9.463081956E-1,-3.447650373E-1,9.760561943E0
3.768836257E0,-9.367313981E-1,-3.351882398E-1,9.765350342E0
3.770844747E0,-9.606734514E-1,-3.351882398E-1,9.741408348E0
3.772853549E0,-9.415197968E-1,-3.208230138E-1,9.746196747E0
3.774862507E0,-9.319429994E-1,-3.256114423E-1,9.741408348E0
3.776868757E0,-9.367313981E-1,-3.303998411E-1,9.750985146E0
3.778875111E0,-9.415197968E-1,-3.256114423E-1,9.755773544E0
3.780881518E0,-9.319429994E-1,-3.208230138E-1,9.770138741E0
3.782893341E0,-9.415197968E-1,-3.064578176E-1,9.765350342E0
3.784894382E0,-9.463081956E-1,-3.303998411E-1,9.755773544E0
3.786895580E0,-9.415197968E-1,-3.256114423E-1,9.741408348E0
3.788897091E0,-9.415197968E-1,-3.303998411E-1,9.746196747E0
3.790899070E0,-9.415197968E-1,-3.112462163E-1,9.736619949E0
3.792901622E0,-9.271546006E-1,-3.160346150E-1,9.736619949E0
3.794904851E0,-9.558850527E-1,-3.256114423E-1,9.746196747E0
3.796908861E0,-9.367313981E-1,-3.160346150E-1,9.770138741E0
3.798913653E0,-9.463081956E-1,-3.256114423E-1,9.784503937E0
3.800919226E0,-9.223662019E-1,-3.447650373E-1,9.774927139E0
3.802925580E0,-9.415197968E-1,-3.112462163E-1,9.741408348E0
3.804932611E0,-9.319429994E-1,-3.447650373E-1,9.741408348E0
3.806940268E0,-9.223662019E-1,-3.160346150E-1,9.722254753E0
3.808948445E0,-9.271546006E-1,-3.256114423E-1,9.746196747E0
3.810956986E0,-9.367313981E-1,-3.351882398E-1,9.746196747E0
3.812966049E0,-9.271546006E-1,-3.160346150E-1,9.741408348E0
3.814970111E0,-9.463081956E-1,-3.447650373E-1,9.760561943E0
3.816974486E0,-9.415197968E-1,-3.399766386E-1,9.760561943E0
3.818979226E0,-9.367313981E-1,-3.303998411E-1,9.770138741E0
3.820984382E0,-9.319429994E-1,-3.208230138E-1,9.779715538E0
3.822989903E0,-9.319429994E-1,-3.303998411E-1,9.770138741E0
3.824995789E0,-9.510966539E-1,-3.303998411E-1,9.741408348E0
3.827002039E0,-9.175778031E-1,-3.447650373E-1,9.770138741E0
3.829008601E0,-9.271546006E-1,-3.447650373E-1,9.770138741E0
3.831015424E0,-9.319429994E-1,-3.351882398E-1,9.774927139E0
3.833022455E0,-9.080010056E-1,-3.495534360E-1,9.765350342E0
3.835029591E0,-9.127894044E-1,-3.351882398E-1,9.774927139E0
3.837036778E0,-9.127894044E-1,-3.351882398E-1,9.760561943E0
3.839041257E0,-9.175778031E-1,-3.447650373E-1,9.765350342E0
3.841046205E0,-9.127894044E-1,-3.399766386E-1,9.774927139E0
3.843053861E0,-9.127894044E-1,-3.351882398E-1,9.755773544E0
3.845060997E0,-9.319429994E-1,-3.399766386E-1,9.765350342E0
3.847066570E0,-9.223662019E-1,-3.351882398E-1,9.770138741E0
3.849072091E0,-9.319429994E-1,-3.256114423E-1,9.760561943E0
3.851083028E0,-9.127894044E-1,-3.256114423E-1,9.755773544E0
3.853083236E0,-9.175778031E-1,-3.256114423E-1,9.755773544E0
3.855083653E0,-9.271546006E-1,-3.447650373E-1,9.746196747E0
3.857084434E0,-9.463081956E-1,-3.256114423E-1,9.760561943E0
3.859085789E0,-9.558850527E-1,-3.208230138E-1,9.750985146E0
3.861087872E0,-9.510966539E-1,-3.303998411E-1,9.755773544E0
3.863090789E0,-9.606734514E-1,-3.208230138E-1,9.760561943E0
3.865094591E0,-9.558850527E-1,-3.303998411E-1,9.750985146E0
3.867099330E0,-9.463081956E-1,-3.160346150E-1,9.770138741E0
3.869105007E0,-9.510966539E-1,-3.160346150E-1,9.750985146E0
3.871111570E0,-9.606734514E-1,-3.208230138E-1,9.746196747E0
3.873118914E0,-9.606734514E-1,-3.160346150E-1,9.727043152E0
3.875126934E0,-9.654618502E-1,-3.256114423E-1,9.722254753E0
3.877135528E0,-9.558850527E-1,-3.351882398E-1,9.731831551E0
3.879144539E0,-9.702502489E-1,-3.399766386E-1,9.755773544E0
3.881153809E0,-9.654618502E-1,-3.399766386E-1,9.750985146E0
3.883163184E0,-9.558850527E-1,-3.495534360E-1,9.731831551E0
3.885172091E0,-9.702502489E-1,-3.351882398E-1,9.750985146E0
3.887177611E0,-9.702502489E-1,-3.399766386E-1,9.760561943E0
3.889180424E0,-9.846154451E-1,-3.591302633E-1,9.736619949E0
3.891183445E0,-9.798270464E-1,-3.543418646E-1,9.746196747E0
3.893186778E0,-9.702502489E-1,-3.591302633E-1,9.717466354E0
3.895190476E0,-9.702502489E-1,-3.543418646E-1,9.722254753E0
3.897194591E0,-9.702502489E-1,-3.495534360E-1,9.722254753E0
3.899199174E0,-9.750386477E-1,-3.591302633E-1,9.722254753E0
3.901204226E0,-9.798270464E-1,-3.495534360E-1,9.712677956E0
3.903209747E0,-9.702502489E-1,-3.734954596E-1,9.731831551E0
3.905215736E0,-9.798270464E-1,-3.639186621E-1,9.717466354E0
3.907222143E0,-9.798270464E-1,-3.543418646E-1,9.746196747E0
3.909228549E0,-9.894038439E-1,-3.734954596E-1,9.736619949E0
3.911235320E0,-9.750386477E-1,-3.591302633E-1,9.727043152E0
3.913242351E0,-9.558850527E-1,-3.639186621E-1,9.731831551E0
3.915249591E0,-9.510966539E-1,-3.639186621E-1,9.717466354E0
3.917257299E0,-9.750386477E-1,-3.687070608E-1,9.727043152E0
3.919265007E0,-9.654618502E-1,-3.591302633E-1,9.727043152E0
3.921272039E0,-9.606734514E-1,-3.878606856E-1,9.712677956E0
3.923277559E0,-9.702502489E-1,-3.639186621E-1,9.736619949E0
3.925288497E0,-9.606734514E-1,-3.687070608E-1,9.712677956E0
3.927288705E0,-9.558850527E-1,-3.830722570E-1,9.736619949E0
3.929289122E0,-9.702502489E-1,-3.591302633E-1,9.755773544E0
3.931289903E0,-9.606734514E-1,-3.734954596E-1,9.750985146E0
3.933291257E0,-9.702502489E-1,-3.734954596E-1,9.731831551E0
3.935293341E0,-9.750386477E-1,-3.687070608E-1,9.717466354E0
3.937296257E0,-9.798270464E-1,-3.734954596E-1,9.722254753E0
3.939300059E0,-9.702502489E-1,-3.591302633E-1,9.746196747E0
3.941304799E0,-9.654618502E-1,-3.687070608E-1,9.731831551E0
3.943310476E0,-9.654618502E-1,-3.591302633E-1,9.717466354E0
3.945317039E0,-9.941922426E-1,-3.639186621E-1,9.731831551E0
3.947324382E0,-9.702502489E-1,-3.639186621E-1,9.727043152E0
3.949332403E0,-9.750386477E-1,-3.495534360E-1,9.731831551E0
3.951340997E0,-9.894038439E-1,-3.687070608E-1,9.746196747E0
3.953350007E0,-9.941922426E-1,-3.591302633E-1,9.722254753E0
3.955360216E0,-9.750386477E-1,-3.782838583E-1,9.731831551E0
3.957364382E0,-9.846154451E-1,-3.734954596E-1,9.722254753E0
3.959368861E0,-9.989806414E-1,-3.687070608E-1,9.727043152E0
3.961373705E0,-1.003769040E0,-3.734954596E-1,9.731831551E0
3.963378914E0,-9.941922426E-1,-3.591302633E-1,9.722254753E0
3.965384486E0,-1.003769040E0,-3.830722570E-1,9.717466354E0
3.967390424E0,-1.013345838E0,-3.734954596E-1,9.707889557E0
3.969396674E0,-9.989806414E-1,-3.734954596E-1,9.707889557E0
3.971403236E0,-9.941922426E-1,-3.687070608E-1,9.722254753E0
3.973410059E0,-9.894038439E-1,-3.591302633E-1,9.712677956E0
3.975417039E0,-1.008557439E0,-3.639186621E-1,9.712677956E0
3.977424122E0,-1.003769040E0,-3.639186621E-1,9.727043152E0
3.979431257E0,-1.008557439E0,-3.782838583E-1,9.727043152E0
3.981435684E0,-1.013345838E0,-3.687070608E-1,9.707889557E0
3.983440268E0,-9.989806414E-1,-3.782838583E-1,9.712677956E0
3.985445007E0,-1.003769040E0,-3.830722570E-1,9.703101158E0
3.987449955E0,-1.013345838E0,-3.830722570E-1,9.707889557E0
3.989455111E0,-1.003769040E0,-3.734954596E-1,9.707889557E0
3.991460476E0,-1.018134236E0,-3.830722570E-1,9.703101158E0
3.993466361E0,-1.022922635E0,-3.734954596E-1,9.707889557E0
3.995469903E0,-1.018134236E0,-3.687070608E-1,9.688735962E0
3.997473809E0,-1.018134236E0,-3.878606856E-1,9.707889557E0
3.999478132E0,-1.013345838E0,-3.782838583E-1,9.707889557E0
4.001482924E0,-1.003769040E0,-3.878606856E-1,9.717466354E0
4.003488184E0,-1.013345838E0,-3.830722570E-1,9.707889557E0
4.005493914E0,-9.941922426E-1,-3.734954596E-1,9.693524361E0
4.007500059E0,-1.003769040E0,-3.926490843E-1,9.703101158E0
4.009506570E0,-9.989806414E-1,-3.782838583E-1,9.712677956E0
4.011513393E0,-9.989806414E-1,-3.782838583E-1,9.712677956E0
4.013520476E0,-1.003769040E0,-3.782838583E-1,9.717466354E0
4.015527768E0,-1.008557439E0,-3.687070608E-1,9.707889557E0
4.017535164E0,-1.003769040E0,-3.591302633E-1,9.712677956E0
4.019542611E0,-1.003769040E0,-3.639186621E-1,9.703101158E0
4.021549695E0,-1.008557439E0,-3.495534360E-1,9.717466354E0
4.023555268E0,-9.989806414E-1,-3.543418646E-1,9.722254753E0
4.025560789E0,-9.941922426E-1,-3.639186621E-1,9.707889557E0
