"Time (s)","Gyroscope x (rad/s)","Gyroscope y (rad/s)","Gyroscope z (rad/s)"
3.851005900E-2,-3.994738800E-4,4.127896391E-3,-3.062632866E-3
4.051849700E-2,6.657897611E-4,4.127896391E-3,-1.997369342E-3
4.252750700E-2,1.731053460E-3,4.127896391E-3,-3.062632866E-3
4.453693400E-2,-3.994738800E-4,4.127896391E-3,-1.997369342E-3
4.654657000E-2,-1.464737463E-3,5.193160381E-3,-9.321057005E-4
4.855625700E-2,6.657897611E-4,4.127896391E-3,-9.321057005E-4
5.056360100E-2,1.731053460E-3,4.127896391E-3,-1.997369342E-3
5.256912200E-2,6.657897611E-4,4.127896391E-3,-1.997369342E-3
5.457193400E-2,-1.464737463E-3,5.193160381E-3,-9.321057005E-4
5.657495500E-2,-2.530001104E-3,4.127896391E-3,-9.321057005E-4
5.857823600E-2,-3.994738800E-4,3.062632866E-3,-9.321057005E-4
6.058188200E-2,6.657897611E-4,5.193160381E-3,-9.321057005E-4
6.258594500E-2,-3.994738800E-4,6.258423906E-3,1.331579551E-4
6.459047600E-2,-3.994738800E-4,4.127896391E-3,1.331579551E-4
6.659547600E-2,-3.994738800E-4,3.062632866E-3,1.331579551E-4
6.860094500E-2,6.657897611E-4,-1.198421582E-3,1.198421582E-3
7.060688200E-2,-3.994738800E-4,9.321057005E-4,1.331579551E-4
7.261328900E-2,6.657897611E-4,-1.331579551E-4,-9.321057005E-4
7.462011100E-2,-1.464737463E-3,-1.331579551E-4,-9.321057005E-4
7.662724700E-2,6.657897611E-4,9.321057005E-4,1.198421582E-3
7.863464300E-2,6.657897611E-4,9.321057005E-4,1.331579551E-4
8.064219500E-2,6.657897611E-4,9.321057005E-4,-9.321057005E-4
8.264979900E-2,1.731053460E-3,9.321057005E-4,1.331579551E-4
8.466282000E-2,6.657897611E-4,-1.331579551E-4,1.198421582E-3
8.666334100E-2,6.657897611E-4,-1.198421582E-3,1.198421582E-3
8.866401800E-2,1.731053460E-3,-2.263685223E-3,1.198421582E-3
9.066505900E-2,6.657897611E-4,-2.263685223E-3,1.331579551E-4
9.266662200E-2,6.657897611E-4,-4.394212738E-3,-9.321057005E-4
9.466886100E-2,2.796316985E-3,-4.394212738E-3,1.331579551E-4
9.667188200E-2,2.796316985E-3,-5.459476262E-3,1.198421582E-3
9.867573600E-2,3.861580743E-3,-2.263685223E-3,1.198421582E-3
1.006804760E-1,1.731053460E-3,-1.198421582E-3,1.198421582E-3
1.026861010E-1,6.657897611E-4,-2.263685223E-3,1.331579551E-4
1.046925590E-1,6.657897611E-4,-5.459476262E-3,1.198421582E-3
1.066997990E-1,1.731053460E-3,-4.394212738E-3,3.328948980E-3
1.087077160E-1,1.731053460E-3,-3.328948980E-3,1.198421582E-3
1.107161530E-1,1.731053460E-3,-2.263685223E-3,1.198421582E-3
1.127250070E-1,1.731053460E-3,-5.459476262E-3,2.263685223E-3
1.147341220E-1,1.731053460E-3,-4.394212738E-3,1.331579551E-4
1.167433410E-1,3.861580743E-3,-7.590003312E-3,1.198421582E-3
1.187520390E-1,1.731053460E-3,-5.459476262E-3,1.198421582E-3
1.207575590E-1,6.657897611E-4,-3.328948980E-3,1.198421582E-3
1.227603720E-1,-3.994738800E-4,-3.328948980E-3,1.198421582E-3
1.247633930E-1,2.796316985E-3,-6.524739787E-3,1.198421582E-3
1.267667260E-1,2.796316985E-3,-9.720530361E-3,1.198421582E-3
1.287704240E-1,1.731053460E-3,-4.394212738E-3,1.331579551E-4
1.307745390E-1,1.731053460E-3,-3.328948980E-3,1.198421582E-3
1.327791220E-1,1.731053460E-3,-2.263685223E-3,1.198421582E-3
1.347841740E-1,-3.994738800E-4,-4.394212738E-3,1.331579551E-4
1.367896950E-1,2.796316985E-3,-7.590003312E-3,1.331579551E-4
1.387956840E-1,1.731053460E-3,-4.394212738E-3,1.331579551E-4
1.408020910E-1,1.731053460E-3,-3.328948980E-3,2.263685223E-3
1.428088610E-1,-3.994738800E-4,-2.263685223E-3,-9.321057005E-4
1.448159450E-1,1.731053460E-3,-3.328948980E-3,1.331579551E-4
1.468232890E-1,2.796316985E-3,-6.524739787E-3,1.331579551E-4
1.488307890E-1,1.731053460E-3,-6.524739787E-3,1.198421582E-3
1.508383410E-1,1.731053460E-3,-2.263685223E-3,1.198421582E-3
1.528513090E-1,-3.994738800E-4,-2.263685223E-3,-9.321057005E-4
1.548518300E-1,6.657897611E-4,-2.263685223E-3,1.198421582E-3
1.568525070E-1,6.657897611E-4,-5.459476262E-3,1.198421582E-3
1.588535490E-1,6.657897611E-4,-6.524739787E-3,1.331579551E-4
1.608551110E-1,3.861580743E-3,-3.328948980E-3,1.331579551E-4
1.628573510E-1,1.731053460E-3,-1.198421582E-3,-9.321057005E-4
1.648603720E-1,1.731053460E-3,-1.331579551E-4,1.331579551E-4
1.668642260E-1,1.731053460E-3,-1.198421582E-3,2.263685223E-3
1.688689660E-1,1.731053460E-3,-2.263685223E-3,1.331579551E-4
1.708745910E-1,1.731053460E-3,-2.263685223E-3,-9.321057005E-4
1.728810490E-1,2.796316985E-3,-1.331579551E-4,-9.321057005E-4
1.748882890E-1,-3.994738800E-4,-1.331579551E-4,-9.321057005E-4
1.768962050E-1,6.657897611E-4,-2.263685223E-3,-9.321057005E-4
1.789046430E-1,6.657897611E-4,-2.263685223E-3,-3.062632866E-3
1.809134970E-1,6.657897611E-4,-1.331579551E-4,-9.321057005E-4
1.829226110E-1,6.657897611E-4,9.321057005E-4,1.331579551E-4
1.849318300E-1,1.731053460E-3,9.321057005E-4,-9.321057005E-4
1.869404760E-1,6.657897611E-4,9.321057005E-4,1.331579551E-4
1.889460490E-1,-3.994738800E-4,-1.198421582E-3,1.331579551E-4
1.909515700E-1,1.731053460E-3,-2.263685223E-3,-1.997369342E-3
1.929543820E-1,1.731053460E-3,-1.331579551E-4,-1.997369342E-3
1.949574030E-1,1.731053460E-3,9.321057005E-4,-9.321057005E-4
1.969607360E-1,6.657897611E-4,-1.198421582E-3,-9.321057005E-4
1.989644340E-1,6.657897611E-4,9.321057005E-4,-9.321057005E-4
2.009685490E-1,6.657897611E-4,3.062632866E-3,-9.321057005E-4
2.029731320E-1,6.657897611E-4,-1.198421582E-3,1.331579551E-4
2.049781840E-1,-3.994738800E-4,9.321057005E-4,1.198421582E-3
2.069837050E-1,-3.994738800E-4,9.321057005E-4,-9.321057005E-4
2.089896950E-1,1.731053460E-3,-1.331579551E-4,1.331579551E-4
2.109961010E-1,2.663159103E-4,1.331579551E-4,-6.657897611E-4
2.130028720E-1,-7.989477599E-4,1.198421582E-3,-1.731053460E-3
2.150099550E-1,-7.989477599E-4,1.331579551E-4,-6.657897611E-4
2.170172990E-1,-7.989477599E-4,1.198421582E-3,3.994738800E-4
2.190247990E-1,-7.989477599E-4,1.331579551E-4,3.994738800E-4
2.210323510E-1,-7.989477599E-4,1.331579551E-4,3.994738800E-4
2.230453200E-1,-7.989477599E-4,1.331579551E-4,3.994738800E-4
2.250458410E-1,-7.989477599E-4,1.198421582E-3,1.464737463E-3
2.270465180E-1,-7.989477599E-4,-1.997369342E-3,3.994738800E-4
2.290475590E-1,-7.989477599E-4,-1.997369342E-3,3.994738800E-4
2.310491220E-1,1.331579522E-3,1.331579551E-4,-6.657897611E-4
2.330513610E-1,-7.989477599E-4,-9.321057005E-4,3.994738800E-4
2.350543820E-1,1.331579522E-3,-9.321057005E-4,1.464737463E-3
2.370582360E-1,2.396843163E-3,1.331579551E-4,3.994738800E-4
2.390629760E-1,1.331579522E-3,1.331579551E-4,1.464737463E-3
2.410686010E-1,2.663159103E-4,-1.997369342E-3,2.530001104E-3
2.430750590E-1,-7.989477599E-4,-3.062632866E-3,1.464737463E-3
2.450822990E-1,2.663159103E-4,-3.062632866E-3,1.464737463E-3
2.470902160E-1,-7.989477599E-4,1.331579551E-4,2.530001104E-3
2.490986530E-1,2.663159103E-4,1.331579551E-4,1.464737463E-3
2.511075070E-1,1.331579522E-3,-9.321057005E-4,3.994738800E-4
2.531166220E-1,2.663159103E-4,-1.997369342E-3,3.994738800E-4
2.551258410E-1,1.331579522E-3,-1.997369342E-3,3.994738800E-4
2.571344860E-1,2.663159103E-4,-9.321057005E-4,1.464737463E-3
2.591400590E-1,2.663159103E-4,-1.997369342E-3,2.530001104E-3
2.611456320E-1,-7.989477599E-4,-1.997369342E-3,1.464737463E-3
2.631511530E-1,2.663159103E-4,-3.062632866E-3,1.464737463E-3
2.651539660E-1,1.331579522E-3,-1.997369342E-3,3.994738800E-4
2.671569860E-1,-1.864211401E-3,-1.997369342E-3,3.994738800E-4
2.691602680E-1,-7.989477599E-4,-3.062632866E-3,1.464737463E-3
2.711639140E-1,2.663159103E-4,-1.997369342E-3,1.464737463E-3
2.731679760E-1,1.331579522E-3,-4.127896391E-3,1.464737463E-3
2.751725070E-1,1.331579522E-3,-9.321057005E-4,3.994738800E-4
2.771775070E-1,2.663159103E-4,-1.997369342E-3,-6.657897611E-4
2.791829760E-1,2.663159103E-4,-3.062632866E-3,-6.657897611E-4
2.811889140E-1,2.663159103E-4,-4.127896391E-3,3.994738800E-4
2.831953200E-1,-7.989477599E-4,-1.997369342E-3,3.994738800E-4
2.852021430E-1,1.331579522E-3,-1.997369342E-3,1.464737463E-3
2.872092780E-1,1.331579522E-3,-9.321057005E-4,2.530001104E-3
2.892166740E-1,2.663159103E-4,-9.321057005E-4,1.464737463E-3
2.912242260E-1,-7.989477599E-4,1.331579551E-4,2.530001104E-3
2.932318300E-1,2.663159103E-4,-4.127896391E-3,1.464737463E-3
2.952448510E-1,-7.989477599E-4,1.331579551E-4,1.464737463E-3
2.972453720E-1,2.663159103E-4,-9.321057005E-4,3.994738800E-4
2.992458930E-1,2.663159103E-4,-9.321057005E-4,3.994738800E-4
3.012467780E-1,2.663159103E-4,-9.321057005E-4,-6.657897611E-4
3.032482360E-1,-1.864211401E-3,1.331579551E-4,1.464737463E-3
3.052503720E-1,-7.989477599E-4,-9.321057005E-4,1.464737463E-3
3.072541740E-1,1.331579522E-3,1.331579551E-4,1.464737463E-3
3.092579760E-1,2.663159103E-4,1.198421582E-3,1.464737463E-3
3.112626640E-1,2.663159103E-4,1.331579551E-4,3.994738800E-4
3.132682360E-1,2.663159103E-4,-1.997369342E-3,1.464737463E-3
3.152746430E-1,2.663159103E-4,-9.321057005E-4,1.464737463E-3
3.172818300E-1,-7.989477599E-4,1.198421582E-3,3.994738800E-4
3.192896950E-1,2.663159103E-4,1.198421582E-3,1.464737463E-3
3.212981320E-1,-7.989477599E-4,1.198421582E-3,-6.657897611E-4
3.233069860E-1,-7.989477599E-4,1.331579551E-4,1.464737463E-3
3.253161010E-1,-7.989477599E-4,1.331579551E-4,1.464737463E-3
3.273253200E-1,-7.989477599E-4,1.198421582E-3,3.994738800E-4
3.293340700E-1,-1.864211401E-3,1.198421582E-3,3.994738800E-4
3.313396430E-1,-7.989477599E-4,1.198421582E-3,3.994738800E-4
3.333451640E-1,-1.864211401E-3,1.198421582E-3,1.464737463E-3
3.353479760E-1,2.663159103E-4,1.198421582E-3,1.464737463E-3
3.373509970E-1,-7.989477599E-4,2.263685223E-3,1.464737463E-3
3.393542780E-1,-1.864211401E-3,2.263685223E-3,1.464737463E-3
3.413579240E-1,-1.864211401E-3,2.263685223E-3,2.530001104E-3
3.433619860E-1,-2.929474926E-3,1.198421582E-3,2.530001104E-3
3.453667780E-1,-2.929474926E-3,1.198421582E-3,1.464737463E-3
3.473740700E-1,-1.864211401E-3,1.331579551E-4,3.994738800E-4
3.493816740E-1,-1.864211401E-3,3.328948980E-3,2.530001104E-3
3.513894860E-1,-2.929474926E-3,6.524739787E-3,1.464737463E-3
3.533974030E-1,-1.864211401E-3,4.394212738E-3,2.530001104E-3
3.554107360E-1,-1.864211401E-3,2.263685223E-3,1.464737463E-3
3.574116740E-1,-1.864211401E-3,4.394212738E-3,2.530001104E-3
3.594127680E-1,-3.994738683E-3,3.328948980E-3,2.530001104E-3
3.614141740E-1,-3.994738683E-3,4.394212738E-3,1.464737463E-3
3.634160490E-1,-2.929474926E-3,5.459476262E-3,2.530001104E-3
3.654185490E-1,-3.994738683E-3,4.394212738E-3,3.994738800E-4
3.674217780E-1,-3.994738683E-3,3.328948980E-3,1.464737463E-3
3.694257890E-1,-1.864211401E-3,4.394212738E-3,1.464737463E-3
3.714305800E-1,-1.864211401E-3,5.459476262E-3,1.464737463E-3
3.734365180E-1,-2.929474926E-3,6.524739787E-3,2.530001104E-3
3.754424550E-1,-1.864211401E-3,3.328948980E-3,2.530001104E-3
3.774491220E-1,-3.994738683E-3,4.394212738E-3,1.464737463E-3
3.794564140E-1,-3.994738683E-3,4.394212738E-3,-6.657897611E-4
3.814642780E-1,-1.864211401E-3,6.524739787E-3,1.464737463E-3
3.834725590E-1,-3.994738683E-3,8.655266836E-3,2.530001104E-3
3.854811530E-1,-6.125265732E-3,8.655266836E-3,-6.657897611E-4
3.874899030E-1,-1.864211401E-3,5.459476262E-3,3.994738800E-4
3.894987050E-1,-2.929474926E-3,6.524739787E-3,1.464737463E-3
3.915059450E-1,-2.929474926E-3,7.590003312E-3,1.464737463E-3
3.935114660E-1,-2.929474926E-3,8.655266836E-3,3.994738800E-4
3.955142780E-1,-3.994738683E-3,6.524739787E-3,-6.657897611E-4
3.975172990E-1,-1.864211401E-3,8.655266836E-3,3.994738800E-4
3.995205800E-1,-2.929474926E-3,8.655266836E-3,3.994738800E-4
4.015242260E-1,-3.994738683E-3,9.720530361E-3,-6.657897611E-4
4.035282890E-1,-1.864211401E-3,1.291632187E-2,-2.796316985E-3
4.055328200E-1,1.331579522E-3,8.655266836E-3,3.994738800E-4
4.075378200E-1,-3.994738683E-3,5.459476262E-3,-6.657897611E-4
4.095433410E-1,-9.321057238E-3,5.459476262E-3,-1.731053460E-3
4.115502680E-1,-2.929474926E-3,3.328948980E-3,-6.657897611E-4
4.135571950E-1,8.788425475E-3,5.459476262E-3,-6.657897611E-4
4.155644340E-1,2.396843163E-3,1.930790395E-2,3.994738800E-4
4.175718820E-1,-3.994738683E-3,2.037316747E-2,-1.731053460E-3
4.195794860E-1,-1.864211401E-3,6.524739787E-3,3.994738800E-4
4.215871430E-1,-2.929474926E-3,1.198421582E-3,1.464737463E-3
4.235946430E-1,2.663159103E-4,1.198421582E-3,-1.731053460E-3
4.256001640E-1,3.462106921E-3,7.590003312E-3,-2.796316985E-3
4.276111010E-1,-3.994738683E-3,1.398158539E-2,-1.731053460E-3
4.296112570E-1,-8.255792782E-3,8.655266836E-3,-1.731053460E-3
4.316116220E-1,1.331579522E-3,-9.321057005E-4,-1.731053460E-3
4.336123510E-1,4.527370445E-3,4.394212738E-3,3.994738800E-4
4.356136530E-1,-1.864211401E-3,1.398158539E-2,3.994738800E-4
4.376156840E-1,-8.255792782E-3,1.185105834E-2,-6.657897611E-4
4.396185490E-1,-1.864211401E-3,-9.321057005E-4,-6.657897611E-4
4.416214140E-1,3.462106921E-3,-6.258423906E-3,3.994738800E-4
4.436252680E-1,-7.989477599E-4,2.263685223E-3,3.994738800E-4
4.456301640E-1,-3.994738683E-3,1.078579482E-2,-6.657897611E-4
4.476361010E-1,-1.864211401E-3,8.655266836E-3,3.994738800E-4
4.496429760E-1,-7.989477599E-4,1.331579551E-4,3.994738800E-4
4.516507360E-1,1.331579522E-3,-3.062632866E-3,1.464737463E-3
4.536592260E-1,1.331579522E-3,-9.321057005E-4,2.530001104E-3
4.556683410E-1,-1.864211401E-3,4.394212738E-3,1.464737463E-3
4.576778720E-1,-2.929474926E-3,3.328948980E-3,3.994738800E-4
4.596876640E-1,-1.864211401E-3,-4.127896391E-3,3.994738800E-4
4.616975070E-1,1.331579522E-3,-7.323687430E-3,1.464737463E-3
4.637055280E-1,-7.989477599E-4,-1.997369342E-3,3.994738800E-4
4.657110490E-1,-1.864211401E-3,2.263685223E-3,3.994738800E-4
4.677138610E-1,-7.989477599E-4,-9.321057005E-4,1.464737463E-3
4.697168820E-1,2.396843163E-3,-4.127896391E-3,1.464737463E-3
4.717201640E-1,-7.989477599E-4,-3.062632866E-3,2.530001104E-3
4.737238090E-1,-1.864211401E-3,-5.193160381E-3,1.464737463E-3
4.757278720E-1,-7.989477599E-4,-8.388951421E-3,1.464737463E-3
4.777324030E-1,1.331579522E-3,-6.258423906E-3,3.994738800E-4
4.797369340E-1,3.462106921E-3,-6.258423906E-3,3.994738800E-4
4.817419860E-1,2.396843163E-3,-1.997369342E-3,3.994738800E-4
4.837475590E-1,2.663159103E-4,-1.997369342E-3,3.994738800E-4
4.857536530E-1,2.396843163E-3,-5.193160381E-3,2.530001104E-3
4.877602160E-1,4.527370445E-3,-6.258423906E-3,1.464737463E-3
4.897671950E-1,3.462106921E-3,-7.323687430E-3,1.464737463E-3
4.917744860E-1,3.462106921E-3,-6.258423906E-3,1.464737463E-3
4.937820390E-1,2.396843163E-3,-5.193160381E-3,-6.657897611E-4
4.957897470E-1,2.396843163E-3,-9.454214945E-3,3.994738800E-4
4.977975070E-1,5.592633970E-3,-9.454214945E-3,3.994738800E-4
4.998106840E-1,5.592633970E-3,-4.127896391E-3,-1.731053460E-3
5.018108410E-1,2.396843163E-3,-5.193160381E-3,-6.657897611E-4
5.038112050E-1,2.396843163E-3,-5.193160381E-3,3.994738800E-4
5.058119340E-1,1.331579522E-3,-6.258423906E-3,-1.731053460E-3
5.078132360E-1,3.462106921E-3,-8.388951421E-3,3.994738800E-4
5.098152680E-1,2.396843163E-3,-7.323687430E-3,3.994738800E-4
5.118181320E-1,2.396843163E-3,-5.193160381E-3,-6.657897611E-4
5.138218820E-1,3.462106921E-3,-3.062632866E-3,-6.657897611E-4
5.158265700E-1,3.462106921E-3,-3.062632866E-3,-6.657897611E-4
5.178312570E-1,3.462106921E-3,-7.323687430E-3,-6.657897611E-4
5.198369340E-1,4.527370445E-3,-7.323687430E-3,3.994738800E-4
5.218435490E-1,3.462106921E-3,-4.127896391E-3,3.994738800E-4
5.238509970E-1,1.331579522E-3,-5.193160381E-3,1.464737463E-3
5.258591740E-1,4.527370445E-3,-5.193160381E-3,1.464737463E-3
5.278679240E-1,1.331579522E-3,-4.127896391E-3,3.994738800E-4
5.298771430E-1,1.331579522E-3,-5.193160381E-3,3.994738800E-4
5.318866220E-1,2.396843163E-3,-5.193160381E-3,3.994738800E-4
5.338962050E-1,1.331579522E-3,-4.127896391E-3,-6.657897611E-4
5.359051110E-1,1.331579522E-3,-3.062632866E-3,1.464737463E-3
5.379106320E-1,3.462106921E-3,-4.127896391E-3,3.994738800E-4
5.399134450E-1,2.663159103E-4,-4.127896391E-3,-6.657897611E-4
5.419164660E-1,1.331579522E-3,-4.127896391E-3,3.994738800E-4
5.439197470E-1,2.396843163E-3,-4.127896391E-3,3.994738800E-4
5.459233930E-1,1.331579522E-3,-3.062632866E-3,1.464737463E-3
5.479274550E-1,2.663159103E-4,-1.997369342E-3,3.994738800E-4
5.499319860E-1,2.396843163E-3,-1.997369342E-3,-6.657897611E-4
5.519369860E-1,2.396843163E-3,-3.062632866E-3,-6.657897611E-4
5.539425070E-1,2.396843163E-3,-9.321057005E-4,3.994738800E-4
5.559484970E-1,2.663159103E-4,-9.321057005E-4,-6.657897611E-4
5.579549030E-1,2.396843163E-3,-1.997369342E-3,3.994738800E-4
5.599616740E-1,1.331579522E-3,-1.997369342E-3,-1.731053460E-3
5.619687570E-1,-7.989477599E-4,-4.127896391E-3,-6.657897611E-4
5.639770390E-1,-7.989477599E-4,-1.997369342E-3,1.464737463E-3
5.659806840E-1,2.396843163E-3,-9.321057005E-4,-6.657897611E-4
5.679846950E-1,2.396843163E-3,1.331579551E-4,-6.657897611E-4
5.699891220E-1,2.663159103E-4,1.198421582E-3,3.994738800E-4
5.719939660E-1,2.663159103E-4,1.331579551E-4,-6.657897611E-4
5.739992260E-1,2.396843163E-3,1.331579551E-4,3.994738800E-4
5.760049030E-1,2.663159103E-4,-1.997369342E-3,-1.731053460E-3
5.780109970E-1,1.331579522E-3,-1.997369342E-3,-6.657897611E-4
5.800174550E-1,2.663159103E-4,-9.321057005E-4,-6.657897611E-4
5.820242260E-1,3.462106921E-3,1.331579551E-4,-6.657897611E-4
5.840309970E-1,3.462106921E-3,-9.321057005E-4,1.464737463E-3
5.860379760E-1,2.396843163E-3,-9.321057005E-4,-6.657897611E-4
5.880451110E-1,3.462106921E-3,-9.321057005E-4,-1.731053460E-3
5.900522990E-1,2.396843163E-3,-9.321057005E-4,-6.657897611E-4
5.920649030E-1,2.396843163E-3,-1.997369342E-3,-6.657897611E-4
5.940658930E-1,2.663159103E-4,-1.997369342E-3,-1.731053460E-3
5.960670390E-1,1.331579522E-3,-3.062632866E-3,-6.657897611E-4
5.980684970E-1,1.331579522E-3,-9.321057005E-4,-6.657897611E-4
6.000704240E-1,3.462106921E-3,-9.321057005E-4,3.994738800E-4
6.020729760E-1,2.396843163E-3,-1.997369342E-3,-6.657897611E-4
6.040762050E-1,2.663159103E-4,-1.997369342E-3,-6.657897611E-4
6.060802160E-1,2.663159103E-4,-4.127896391E-3,3.994738800E-4
6.080850070E-1,2.396843163E-3,-3.062632866E-3,3.994738800E-4
6.100905800E-1,3.462106921E-3,-4.127896391E-3,3.994738800E-4
6.120969340E-1,2.396843163E-3,-4.127896391E-3,2.530001104E-3
6.141039660E-1,1.331579522E-3,-1.997369342E-3,1.464737463E-3
6.161116220E-1,2.396843163E-3,-4.127896391E-3,2.530001104E-3
6.181197990E-1,1.331579522E-3,-4.127896391E-3,-6.657897611E-4
6.201283410E-1,1.331579522E-3,-3.062632866E-3,-6.657897611E-4
6.221368820E-1,1.331579522E-3,-4.127896391E-3,3.994738800E-4
6.241455280E-1,2.663159103E-4,-5.193160381E-3,3.994738800E-4
6.261514660E-1,-7.989477599E-4,-1.997369342E-3,3.994738800E-4
6.281575070E-1,2.396843163E-3,-5.193160381E-3,2.530001104E-3
6.301636010E-1,1.331579522E-3,-4.127896391E-3,1.464737463E-3
6.321697470E-1,1.331579522E-3,-1.997369342E-3,3.994738800E-4
6.341813090E-1,1.331579522E-3,-1.997369342E-3,3.994738800E-4
6.361822990E-1,-1.864211401E-3,-1.997369342E-3,3.994738800E-4
6.381834450E-1,1.331579522E-3,-5.193160381E-3,3.994738800E-4
6.401849030E-1,-7.989477599E-4,-5.193160381E-3,3.994738800E-4
6.421868300E-1,2.663159103E-4,-5.193160381E-3,1.464737463E-3
6.441893820E-1,2.663159103E-4,-3.062632866E-3,1.464737463E-3
6.461926110E-1,-7.989477599E-4,-4.127896391E-3,1.464737463E-3
6.481966220E-1,-1.864211401E-3,-3.062632866E-3,2.530001104E-3
6.502014140E-1,2.396843163E-3,-3.062632866E-3,1.464737463E-3
6.522069860E-1,1.331579522E-3,-3.062632866E-3,-6.657897611E-4
6.542133410E-1,2.663159103E-4,-3.062632866E-3,3.994738800E-4
6.562203720E-1,1.331579522E-3,-1.997369342E-3,1.464737463E-3
6.582280280E-1,1.331579522E-3,-3.062632866E-3,3.595264861E-3
6.602362050E-1,2.663159103E-4,-9.321057005E-4,1.464737463E-3
6.622447470E-1,2.663159103E-4,-1.997369342E-3,-1.731053460E-3
6.642535490E-1,3.462106921E-3,-4.127896391E-3,1.464737463E-3
6.662624550E-1,1.331579522E-3,-9.321057005E-4,1.464737463E-3
6.682709970E-1,1.331579522E-3,-1.997369342E-3,-6.657897611E-4
6.702765700E-1,1.331579522E-3,-1.997369342E-3,3.994738800E-4
6.722820910E-1,2.663159103E-4,-1.997369342E-3,3.994738800E-4
6.742849030E-1,2.663159103E-4,-1.997369342E-3,3.994738800E-4
6.762879240E-1,1.331579522E-3,-9.321057005E-4,1.464737463E-3
6.782912570E-1,1.331579522E-3,-9.321057005E-4,1.464737463E-3
6.802949550E-1,3.462106921E-3,-9.321057005E-4,1.464737463E-3
6.822990700E-1,-7.989477599E-4,1.331579551E-4,3.994738800E-4
6.843036530E-1,1.331579522E-3,-1.997369342E-3,3.994738800E-4
6.863087050E-1,1.331579522E-3,-9.321057005E-4,3.994738800E-4
6.883142260E-1,1.331579522E-3,-9.321057005E-4,1.464737463E-3
6.903202160E-1,2.396843163E-3,-9.321057005E-4,-6.657897611E-4
6.923266220E-1,-7.989477599E-4,-1.997369342E-3,3.994738800E-4
6.943333930E-1,1.331579522E-3,-9.321057005E-4,3.994738800E-4
6.963439660E-1,2.663159103E-4,-1.997369342E-3,3.994738800E-4
6.983545390E-1,-7.989477599E-4,1.331579551E-4,3.994738800E-4
7.003597470E-1,2.663159103E-4,1.331579551E-4,3.994738800E-4
7.023703720E-1,2.663159103E-4,1.331579551E-4,3.994738800E-4
7.043708410E-1,2.663159103E-4,1.331579551E-4,3.994738800E-4
7.063714660E-1,-7.989477599E-4,1.331579551E-4,1.464737463E-3
7.083724550E-1,-2.929474926E-3,1.331579551E-4,1.464737463E-3
7.103739660E-1,-1.864211401E-3,-9.321057005E-4,2.530001104E-3
7.123761530E-1,2.663159103E-4,1.331579551E-4,3.994738800E-4
7.143791220E-1,1.331579522E-3,1.331579551E-4,3.994738800E-4
7.163829240E-1,1.331579522E-3,2.263685223E-3,1.464737463E-3
7.183876110E-1,-7.989477599E-4,2.263685223E-3,1.464737463E-3
7.203931840E-1,-7.989477599E-4,-9.321057005E-4,3.994738800E-4
7.223995910E-1,2.663159103E-4,-3.062632866E-3,3.994738800E-4
7.244067780E-1,2.396843163E-3,-3.062632866E-3,-6.657897611E-4
7.264146430E-1,1.331579522E-3,-1.997369342E-3,3.994738800E-4
7.284230800E-1,2.663159103E-4,-9.321057005E-4,1.464737463E-3
7.304319340E-1,1.331579522E-3,-3.062632866E-3,2.530001104E-3
7.324410490E-1,-1.864211401E-3,-8.388951421E-3,3.994738800E-4
7.344519340E-1,-3.994738683E-3,-1.265000552E-2,3.595264861E-3
7.364628200E-1,-1.864211401E-3,-1.158474199E-2,3.595264861E-3
7.384650590E-1,-7.989477599E-4,-6.258423906E-3,5.725792143E-3
7.404674030E-1,-7.989477599E-4,-5.193160381E-3,5.725792143E-3
7.424699550E-1,-7.989477599E-4,-4.127896391E-3,6.791055668E-3
7.444738090E-1,-7.989477599E-4,-4.127896391E-3,6.791055668E-3
7.464777160E-1,-1.864211401E-3,-5.193160381E-3,8.921583183E-3
7.484820390E-1,-3.994738683E-3,-5.193160381E-3,7.856319658E-3
7.504868300E-1,-2.929474926E-3,-7.323687430E-3,7.856319658E-3
7.524920910E-1,-5.060002208E-3,-6.258423906E-3,7.856319658E-3
7.544978200E-1,-3.994738683E-3,-1.997369342E-3,5.725792143E-3
7.565039660E-1,-3.994738683E-3,-9.321057005E-4,4.660528619E-3
7.585105280E-1,-5.060002208E-3,-9.321057005E-4,6.791055668E-3
7.605174030E-1,-5.060002208E-3,1.331579551E-4,5.725792143E-3
7.625245390E-1,-5.060002208E-3,1.198421582E-3,3.595264861E-3
7.645318820E-1,-3.994738683E-3,1.198421582E-3,3.595264861E-3
7.665393300E-1,-2.929474926E-3,1.198421582E-3,1.464737463E-3
7.685468300E-1,-3.994738683E-3,3.328948980E-3,3.994738800E-4
7.705538090E-1,-1.864211401E-3,5.459476262E-3,-1.731053460E-3
7.725617260E-1,-1.864211401E-3,6.524739787E-3,3.994738800E-4
7.745717260E-1,1.331579522E-3,6.524739787E-3,-1.731053460E-3
7.765704240E-1,-7.989477599E-4,8.655266836E-3,-1.731053460E-3
7.785693820E-1,-7.989477599E-4,1.078579482E-2,-6.657897611E-4
7.805688610E-1,-7.989477599E-4,1.185105834E-2,-2.796316985E-3
7.825690700E-1,-1.864211401E-3,1.291632187E-2,-1.731053460E-3
7.845701640E-1,-7.989477599E-4,1.398158539E-2,-3.861580743E-3
7.865722990E-1,-2.929474926E-3,1.398158539E-2,-1.731053460E-3
7.885755800E-1,-7.989477599E-4,1.398158539E-2,3.994738800E-4
7.905800590E-1,-5.060002208E-3,1.504684892E-2,-1.731053460E-3
7.925857360E-1,-5.060002208E-3,1.717737690E-2,-3.861580743E-3
7.945925590E-1,-5.060002208E-3,1.930790395E-2,-6.657897611E-4
7.966004240E-1,-3.994738683E-3,1.717737690E-2,-1.731053460E-3
7.986091740E-1,-5.060002208E-3,1.611211337E-2,-6.657897611E-4
8.006186530E-1,-6.125265732E-3,1.611211337E-2,-6.657897611E-4
8.026281320E-1,-5.060002208E-3,1.504684892E-2,-6.657897611E-4
8.046380280E-1,-3.994738683E-3,1.611211337E-2,-6.657897611E-4
8.066481320E-1,-2.929474926E-3,1.717737690E-2,-6.657897611E-4
8.086555280E-1,-1.864211401E-3,1.611211337E-2,3.994738800E-4
8.106629760E-1,-3.994738683E-3,1.611211337E-2,1.464737463E-3
8.126702160E-1,-7.989477599E-4,1.504684892E-2,1.464737463E-3
8.146757890E-1,-1.864211401E-3,1.398158539E-2,-6.657897611E-4
8.166813090E-1,-7.989477599E-4,1.078579482E-2,3.994738800E-4
8.186922470E-1,-3.994738683E-3,9.720530361E-3,-1.731053460E-3
8.206924030E-1,-1.864211401E-3,8.655266836E-3,-1.731053460E-3
8.226927680E-1,-1.864211401E-3,7.590003312E-3,-6.657897611E-4
8.246934970E-1,-2.929474926E-3,5.459476262E-3,-6.657897611E-4
8.266947990E-1,2.663159103E-4,6.524739787E-3,-6.657897611E-4
8.286968300E-1,1.331579522E-3,5.459476262E-3,-1.731053460E-3
8.306996950E-1,-2.929474926E-3,5.459476262E-3,3.994738800E-4
8.327034450E-1,2.663159103E-4,7.590003312E-3,3.994738800E-4
8.347081320E-1,-1.864211401E-3,7.590003312E-3,1.464737463E-3
8.367137570E-1,-7.989477599E-4,4.394212738E-3,3.994738800E-4
8.387202680E-1,-1.864211401E-3,2.263685223E-3,3.994738800E-4
8.407267780E-1,2.663159103E-4,1.331579551E-4,1.464737463E-3
8.427340700E-1,-7.989477599E-4,-9.321057005E-4,1.464737463E-3
8.447420390E-1,-2.929474926E-3,1.331579551E-4,1.464737463E-3
8.467505800E-1,-2.929474926E-3,-9.321057005E-4,2.530001104E-3
8.487595390E-1,-1.864211401E-3,-1.997369342E-3,2.530001104E-3
8.507687570E-1,2.663159103E-4,-9.321057005E-4,2.530001104E-3
8.527780800E-1,1.331579522E-3,-9.321057005E-4,2.530001104E-3
8.547866740E-1,-7.989477599E-4,-3.062632866E-3,2.530001104E-3
8.567921950E-1,-1.864211401E-3,-6.258423906E-3,3.595264861E-3
8.587950070E-1,-7.989477599E-4,-7.323687430E-3,3.595264861E-3
8.607980280E-1,2.663159103E-4,-7.323687430E-3,3.595264861E-3
8.628013610E-1,-1.864211401E-3,-7.323687430E-3,3.595264861E-3
8.648050590E-1,1.331579522E-3,-5.193160381E-3,2.530001104E-3
8.668091740E-1,-2.929474926E-3,-6.258423906E-3,2.530001104E-3
8.688137570E-1,2.663159103E-4,-6.258423906E-3,3.595264861E-3
8.708188090E-1,2.663159103E-4,-7.323687430E-3,1.464737463E-3
8.728243300E-1,1.331579522E-3,-7.323687430E-3,3.595264861E-3
8.748303200E-1,2.663159103E-4,-6.258423906E-3,2.530001104E-3
8.768367260E-1,1.331579522E-3,-6.258423906E-3,2.530001104E-3
8.788434970E-1,2.663159103E-4,-5.193160381E-3,2.530001104E-3
8.808505800E-1,1.331579522E-3,-8.388951421E-3,1.464737463E-3
8.828579240E-1,2.396843163E-3,-7.323687430E-3,3.994738800E-4
8.848654240E-1,2.663159103E-4,-6.258423906E-3,1.464737463E-3
8.868729760E-1,2.663159103E-4,-6.258423906E-3,3.595264861E-3
8.888859450E-1,2.663159103E-4,-7.323687430E-3,1.464737463E-3
8.908864660E-1,1.331579522E-3,-6.258423906E-3,-6.657897611E-4
8.928871430E-1,2.396843163E-3,-7.323687430E-3,-6.657897611E-4
8.948881840E-1,3.462106921E-3,-6.258423906E-3,-6.657897611E-4
8.968897470E-1,3.462106921E-3,-3.062632866E-3,3.994738800E-4
8.988919860E-1,1.331579522E-3,-3.062632866E-3,3.994738800E-4
9.008950070E-1,2.396843163E-3,-3.062632866E-3,3.994738800E-4
9.028988610E-1,1.331579522E-3,-3.062632866E-3,-6.657897611E-4
9.049036010E-1,1.331579522E-3,-4.127896391E-3,-6.657897611E-4
9.069092260E-1,2.396843163E-3,-4.127896391E-3,1.464737463E-3
9.089156840E-1,2.396843163E-3,-5.193160381E-3,-6.657897611E-4
9.109229240E-1,2.396843163E-3,-5.193160381E-3,-6.657897611E-4
9.129308410E-1,2.396843163E-3,-5.193160381E-3,-6.657897611E-4
9.149397990E-1,2.396843163E-3,-3.062632866E-3,-6.657897611E-4
9.169487570E-1,1.331579522E-3,-1.997369342E-3,-1.731053460E-3
9.189579240E-1,1.331579522E-3,-9.321057005E-4,-6.657897611E-4
9.209671430E-1,2.663159103E-4,-9.321057005E-4,-6.657897611E-4
9.229752160E-1,1.331579522E-3,1.331579551E-4,-2.796316985E-3
9.249807360E-1,1.331579522E-3,-1.997369342E-3,3.994738800E-4
9.269835490E-1,-7.989477599E-4,-1.997369342E-3,-1.731053460E-3
9.289865700E-1,2.663159103E-4,1.331579551E-4,-6.657897611E-4
9.309899030E-1,2.663159103E-4,-9.321057005E-4,-6.657897611E-4
9.329936010E-1,1.331579522E-3,1.331579551E-4,-1.731053460E-3
9.349977160E-1,1.331579522E-3,-9.321057005E-4,-6.657897611E-4
9.370022990E-1,-7.989477599E-4,1.331579551E-4,-1.731053460E-3
9.390073510E-1,1.331579522E-3,1.198421582E-3,-1.731053460E-3
9.410128720E-1,2.663159103E-4,-9.321057005E-4,-6.657897611E-4
9.430188610E-1,2.663159103E-4,1.198421582E-3,-1.731053460E-3
9.450252680E-1,2.663159103E-4,2.263685223E-3,3.994738800E-4
9.470320390E-1,2.663159103E-4,2.263685223E-3,3.994738800E-4
9.490391220E-1,2.663159103E-4,1.198421582E-3,3.994738800E-4
9.510464660E-1,-7.989477599E-4,1.331579551E-4,3.994738800E-4
9.530539660E-1,2.663159103E-4,1.198421582E-3,-6.657897611E-4
9.550614660E-1,-7.989477599E-4,1.331579551E-4,-1.731053460E-3
9.570743820E-1,-1.864211401E-3,-9.321057005E-4,3.994738800E-4
9.590750070E-1,-2.929474926E-3,1.331579551E-4,3.994738800E-4
9.610757890E-1,-7.989477599E-4,-9.321057005E-4,1.464737463E-3
9.630769340E-1,1.331579522E-3,-9.321057005E-4,1.464737463E-3
9.650786010E-1,1.331579522E-3,1.331579551E-4,1.464737463E-3
9.670809450E-1,-7.989477599E-4,1.198421582E-3,-6.657897611E-4
9.690840180E-1,-2.929474926E-3,1.331579551E-4,-6.657897611E-4
9.710879240E-1,-7.989477599E-4,-3.062632866E-3,-6.657897611E-4
9.730926640E-1,2.396843163E-3,-3.062632866E-3,1.464737463E-3
9.750982360E-1,-1.864211401E-3,1.198421582E-3,1.464737463E-3
9.771046430E-1,-2.929474926E-3,2.263685223E-3,1.464737463E-3
9.791117780E-1,1.331579522E-3,-9.321057005E-4,2.530001104E-3
9.811195910E-1,1.331579522E-3,-4.127896391E-3,2.530001104E-3
9.831279240E-1,2.663159103E-4,-4.127896391E-3,2.530001104E-3
9.851366740E-1,-1.864211401E-3,-9.321057005E-4,3.994738800E-4
9.871456840E-1,-3.994738683E-3,1.198421582E-3,1.464737463E-3
9.891547990E-1,2.663159103E-4,-3.062632866E-3,3.994738800E-4
9.911643820E-1,2.396843163E-3,-6.258423906E-3,1.464737463E-3
9.931739660E-1,2.663159103E-4,-9.321057005E-4,1.464737463E-3
9.951748510E-1,-2.929474926E-3,-9.321057005E-4,3.994738800E-4
9.971758930E-1,1.331579522E-3,-5.193160381E-3,3.994738800E-4
9.991772470E-1,3.462106921E-3,-7.323687430E-3,2.530001104E-3
1.001179070E0,1.331579522E-3,-9.321057005E-4,2.530001104E-3
1.003181518E0,-7.989477599E-4,1.331579551E-4,1.464737463E-3
1.005184695E0,2.663159103E-4,-3.062632866E-3,1.464737463E-3
1.007188653E0,1.331579522E-3,-5.193160381E-3,2.530001104E-3
1.009193445E0,4.527370445E-3,-5.193160381E-3,3.994738800E-4
1.011199070E0,3.462106921E-3,-9.321057005E-4,1.464737463E-3
1.013205476E0,-7.989477599E-4,1.198421582E-3,1.464737463E-3
1.015212611E0,2.663159103E-4,-1.997369342E-3,1.464737463E-3
1.017220372E0,2.396843163E-3,-6.258423906E-3,1.464737463E-3
1.019228653E0,1.331579522E-3,-6.258423906E-3,2.530001104E-3
1.021236934E0,2.663159103E-4,-9.321057005E-4,1.464737463E-3
1.023245476E0,-1.864211401E-3,1.198421582E-3,3.994738800E-4
1.025254174E0,1.331579522E-3,-1.997369342E-3,2.530001104E-3
1.027260164E0,3.462106921E-3,-3.062632866E-3,2.530001104E-3
1.029267351E0,-7.989477599E-4,-9.321057005E-4,1.464737463E-3
1.031274539E0,-7.989477599E-4,1.331579551E-4,3.994738800E-4
1.033280216E0,-7.989477599E-4,1.331579551E-4,3.994738800E-4
1.035285736E0,2.663159103E-4,-3.062632866E-3,3.994738800E-4
1.037296674E0,1.331579522E-3,-3.062632866E-3,-6.657897611E-4
1.039296830E0,2.663159103E-4,-9.321057005E-4,3.994738800E-4
1.041297195E0,-7.989477599E-4,1.198421582E-3,3.994738800E-4
1.043297924E0,-2.929474926E-3,1.198421582E-3,1.464737463E-3
1.045299226E0,-2.929474926E-3,1.198421582E-3,1.464737463E-3
1.047301257E0,2.663159103E-4,1.331579551E-4,1.464737463E-3
1.049304122E0,-7.989477599E-4,-9.321057005E-4,-6.657897611E-4
1.051307872E0,-7.989477599E-4,1.198421582E-3,-1.731053460E-3
1.053312559E0,2.663159103E-4,1.198421582E-3,1.464737463E-3
1.055318184E0,2.663159103E-4,2.263685223E-3,2.530001104E-3
1.057325841E0,-7.989477599E-4,1.198421582E-3,3.994738800E-4
1.059333497E0,-1.864211401E-3,1.331579551E-4,-1.731053460E-3
1.061341778E0,2.663159103E-4,-9.321057005E-4,3.994738800E-4
1.063350580E0,2.663159103E-4,1.198421582E-3,3.994738800E-4
1.065359747E0,-7.989477599E-4,3.328948980E-3,3.994738800E-4
1.067369591E0,-7.989477599E-4,2.263685223E-3,1.464737463E-3
1.069372455E0,-7.989477599E-4,1.198421582E-3,3.994738800E-4
1.071375684E0,-1.864211401E-3,1.331579551E-4,1.464737463E-3
1.073379382E0,2.663159103E-4,1.198421582E-3,1.464737463E-3
1.075383601E0,2.663159103E-4,4.394212738E-3,3.994738800E-4
1.077388393E0,-7.989477599E-4,5.459476262E-3,3.994738800E-4
1.079393757E0,1.331579522E-3,4.394212738E-3,-6.657897611E-4
1.081399643E0,-1.864211401E-3,1.331579551E-4,3.994738800E-4
1.083406049E0,2.663159103E-4,1.331579551E-4,-6.657897611E-4
1.085412924E0,-7.989477599E-4,3.328948980E-3,3.994738800E-4
1.087420164E0,-7.989477599E-4,3.328948980E-3,1.464737463E-3
1.089427716E0,-7.989477599E-4,1.198421582E-3,-6.657897611E-4
1.091435476E0,2.663159103E-4,1.198421582E-3,-6.657897611E-4
1.093443341E0,2.663159103E-4,2.263685223E-3,-6.657897611E-4
1.095451726E0,-1.864211401E-3,2.263685223E-3,3.994738800E-4
1.097460111E0,-7.989477599E-4,2.263685223E-3,1.464737463E-3
1.099463236E0,-7.989477599E-4,3.328948980E-3,3.994738800E-4
1.101466414E0,-7.989477599E-4,1.198421582E-3,1.464737463E-3
1.103469747E0,-1.864211401E-3,2.263685223E-3,3.994738800E-4
1.105473341E0,-1.864211401E-3,3.328948980E-3,1.464737463E-3
1.107477247E0,-2.929474926E-3,1.198421582E-3,3.994738800E-4
1.109481518E0,-7.989477599E-4,1.331579551E-4,1.464737463E-3
1.111486205E0,-1.864211401E-3,3.328948980E-3,1.464737463E-3
1.113491309E0,-7.989477599E-4,3.328948980E-3,2.530001104E-3
1.115496830E0,2.663159103E-4,2.263685223E-3,1.464737463E-3
1.117502768E0,-7.989477599E-4,2.263685223E-3,1.464737463E-3
1.119509070E0,-1.864211401E-3,3.328948980E-3,3.595264861E-3
1.121515684E0,-1.864211401E-3,1.198421582E-3,2.530001104E-3
1.123522559E0,-5.060002208E-3,3.328948980E-3,1.464737463E-3
1.125529643E0,2.663159103E-4,4.394212738E-3,1.464737463E-3
1.127536882E0,-1.864211401E-3,1.198421582E-3,2.530001104E-3
1.129544174E0,-1.864211401E-3,3.328948980E-3,1.464737463E-3
1.131548757E0,-1.864211401E-3,1.331579551E-4,1.464737463E-3
1.133553497E0,-2.929474926E-3,1.198421582E-3,-6.657897611E-4
1.135558393E0,-7.989477599E-4,1.331579551E-4,1.464737463E-3
1.137563497E0,-7.989477599E-4,1.198421582E-3,3.994738800E-4
1.139568809E0,-7.989477599E-4,2.263685223E-3,3.994738800E-4
1.141574330E0,-7.989477599E-4,2.263685223E-3,3.994738800E-4
1.143580059E0,-7.989477599E-4,-9.321057005E-4,3.994738800E-4
1.145585945E0,1.331579522E-3,-9.321057005E-4,3.994738800E-4
1.147591986E0,-7.989477599E-4,1.198421582E-3,1.464737463E-3
1.149598132E0,-7.989477599E-4,1.331579551E-4,-1.731053460E-3
1.151604382E0,-1.864211401E-3,1.198421582E-3,1.464737463E-3
1.153610684E0,2.396843163E-3,1.331579551E-4,1.464737463E-3
1.155617039E0,2.396843163E-3,1.198421582E-3,3.994738800E-4
1.157628809E0,-7.989477599E-4,1.198421582E-3,1.464737463E-3
1.159629591E0,-7.989477599E-4,1.198421582E-3,2.530001104E-3
1.161630528E0,-1.864211401E-3,1.198421582E-3,3.994738800E-4
1.163631466E0,-1.864211401E-3,-1.997369342E-3,3.994738800E-4
1.165632924E0,1.331579522E-3,1.331579551E-4,1.464737463E-3
1.167635059E0,2.663159103E-4,1.331579551E-4,1.464737463E-3
1.169637976E0,-7.989477599E-4,-9.321057005E-4,1.464737463E-3
1.171641726E0,-7.989477599E-4,1.198421582E-3,1.464737463E-3
1.173646361E0,2.663159103E-4,-1.997369342E-3,1.464737463E-3
1.175651882E0,1.331579522E-3,-9.321057005E-4,3.994738800E-4
1.177658236E0,-7.989477599E-4,1.198421582E-3,1.464737463E-3
1.179665372E0,-2.929474926E-3,-1.997369342E-3,2.530001104E-3
1.181673184E0,-7.989477599E-4,1.198421582E-3,2.530001104E-3
1.183681570E0,2.396843163E-3,1.331579551E-4,1.464737463E-3
1.185690424E0,1.331579522E-3,2.263685223E-3,1.464737463E-3
1.187699591E0,-1.864211401E-3,1.331579551E-4,3.994738800E-4
1.189708914E0,-1.864211401E-3,-3.062632866E-3,3.994738800E-4
1.191715528E0,-7.989477599E-4,-1.997369342E-3,1.464737463E-3
1.193722195E0,1.331579522E-3,-9.321057005E-4,3.994738800E-4
1.195734278E0,2.663159103E-4,-1.997369342E-3,1.464737463E-3
1.197734955E0,1.331579522E-3,-9.321057005E-4,1.464737463E-3
1.199735789E0,2.663159103E-4,-1.997369342E-3,1.464737463E-3
1.201736622E0,2.663159103E-4,-3.062632866E-3,1.464737463E-3
1.203737976E0,2.663159103E-4,-9.321057005E-4,2.530001104E-3
1.205740007E0,-7.989477599E-4,1.331579551E-4,3.994738800E-4
1.207742820E0,-7.989477599E-4,1.331579551E-4,3.994738800E-4
1.209746518E0,-1.864211401E-3,1.331579551E-4,1.464737463E-3
1.211751153E0,-1.864211401E-3,-9.321057005E-4,3.994738800E-4
1.213756726E0,2.663159103E-4,1.331579551E-4,3.994738800E-4
1.215763184E0,-7.989477599E-4,-9.321057005E-4,1.464737463E-3
1.217770424E0,2.663159103E-4,-9.321057005E-4,3.994738800E-4
1.219778393E0,2.663159103E-4,1.198421582E-3,-6.657897611E-4
1.221786934E0,-7.989477599E-4,-9.321057005E-4,3.994738800E-4
1.223795893E0,2.663159103E-4,-9.321057005E-4,-1.731053460E-3
1.225805111E0,1.331579522E-3,1.198421582E-3,3.994738800E-4
1.227814434E0,2.663159103E-4,-9.321057005E-4,1.464737463E-3
1.229823705E0,2.663159103E-4,1.331579551E-4,-6.657897611E-4
1.231829226E0,2.663159103E-4,1.198421582E-3,-6.657897611E-4
1.233832039E0,1.331579522E-3,-9.321057005E-4,1.464737463E-3
1.235835059E0,1.331579522E-3,-1.997369342E-3,3.994738800E-4
1.237838393E0,2.663159103E-4,-9.321057005E-4,-6.657897611E-4
1.239842091E0,2.663159103E-4,1.198421582E-3,3.994738800E-4
1.241846205E0,-7.989477599E-4,1.331579551E-4,3.994738800E-4
1.243850789E0,2.396843163E-3,1.198421582E-3,-6.657897611E-4
1.245855841E0,1.331579522E-3,-9.321057005E-4,-6.657897611E-4
1.247861882E0,2.663159103E-4,1.331579551E-4,3.994738800E-4
1.249868028E0,1.331579522E-3,1.198421582E-3,-1.731053460E-3
1.251874591E0,1.331579522E-3,-9.321057005E-4,3.994738800E-4
1.253881518E0,2.663159103E-4,-9.321057005E-4,1.464737463E-3
1.255888705E0,-2.929474926E-3,1.331579551E-4,3.994738800E-4
1.257896101E0,2.663159103E-4,1.331579551E-4,3.994738800E-4
1.259903601E0,-7.989477599E-4,-1.997369342E-3,1.464737463E-3
1.261911153E0,2.663159103E-4,-1.997369342E-3,1.464737463E-3
1.263917976E0,1.331579522E-3,1.331579551E-4,1.464737463E-3
1.265923549E0,3.462106921E-3,1.331579551E-4,3.994738800E-4
1.267929070E0,2.663159103E-4,1.331579551E-4,-6.657897611E-4
1.269940007E0,-1.864211401E-3,-1.997369342E-3,1.464737463E-3
1.271940164E0,2.663159103E-4,-4.127896391E-3,3.994738800E-4
1.273940528E0,2.663159103E-4,-1.997369342E-3,3.994738800E-4
1.275941830E0,2.663159103E-4,2.263685223E-3,3.994738800E-4
1.277943132E0,2.663159103E-4,1.331579551E-4,3.994738800E-4
1.279945111E0,1.331579522E-3,-9.321057005E-4,-6.657897611E-4
1.281947924E0,2.663159103E-4,1.331579551E-4,3.994738800E-4
1.283951622E0,2.663159103E-4,-9.321057005E-4,3.994738800E-4
1.285956257E0,2.396843163E-3,1.198421582E-3,-6.657897611E-4
1.287961830E0,-7.989477599E-4,-1.997369342E-3,3.994738800E-4
1.289968289E0,2.663159103E-4,-9.321057005E-4,-6.657897611E-4
1.291975580E0,1.331579522E-3,-3.062632866E-3,3.994738800E-4
1.293983601E0,1.331579522E-3,-9.321057005E-4,1.464737463E-3
1.295992195E0,1.331579522E-3,-9.321057005E-4,3.994738800E-4
1.298001205E0,2.663159103E-4,-9.321057005E-4,1.464737463E-3
1.300010476E0,2.663159103E-4,1.331579551E-4,1.464737463E-3
1.302019851E0,2.663159103E-4,1.331579551E-4,2.530001104E-3
1.304028914E0,1.331579522E-3,1.331579551E-4,3.994738800E-4
1.306034486E0,2.663159103E-4,1.331579551E-4,1.464737463E-3
1.308040007E0,1.331579522E-3,1.331579551E-4,3.994738800E-4
1.310042820E0,2.663159103E-4,-1.997369342E-3,-6.657897611E-4
1.312045841E0,-7.989477599E-4,1.331579551E-4,-6.657897611E-4
1.314050320E0,1.331579522E-3,-9.321057005E-4,3.994738800E-4
1.316057664E0,-7.989477599E-4,-1.997369342E-3,3.994738800E-4
1.318065111E0,1.331579522E-3,1.331579551E-4,-6.657897611E-4
1.320077976E0,2.396843163E-3,-9.321057005E-4,-6.657897611E-4
1.322078809E0,1.331579522E-3,-9.321057005E-4,3.994738800E-4
1.324079799E0,2.663159103E-4,1.331579551E-4,3.994738800E-4
1.326081153E0,-1.864211401E-3,-1.997369342E-3,-6.657897611E-4
1.328082976E0,1.331579522E-3,1.331579551E-4,-1.731053460E-3
1.330085424E0,-7.989477599E-4,-9.321057005E-4,-6.657897611E-4
1.332088601E0,2.663159103E-4,1.331579551E-4,3.994738800E-4
1.334092559E0,1.331579522E-3,1.198421582E-3,3.994738800E-4
1.336097351E0,1.331579522E-3,-1.997369342E-3,3.994738800E-4
1.338102976E0,-7.989477599E-4,-1.997369342E-3,1.464737463E-3
1.340109382E0,-7.989477599E-4,1.331579551E-4,3.994738800E-4
1.342116518E0,-1.864211401E-3,-9.321057005E-4,3.994738800E-4
1.344123653E0,1.331579522E-3,1.331579551E-4,3.994738800E-4
1.346131361E0,2.396843163E-3,1.331579551E-4,3.994738800E-4
1.348139539E0,1.331579522E-3,1.331579551E-4,2.530001104E-3
1.350148028E0,2.663159103E-4,1.331579551E-4,1.464737463E-3
1.352156726E0,-1.864211401E-3,1.331579551E-4,1.464737463E-3
1.354165476E0,2.663159103E-4,-9.321057005E-4,1.464737463E-3
1.356173132E0,1.331579522E-3,1.198421582E-3,-1.731053460E-3
1.358178653E0,2.396843163E-3,-9.321057005E-4,-6.657897611E-4
1.360181466E0,2.663159103E-4,-9.321057005E-4,2.530001104E-3
1.362184486E0,-7.989477599E-4,-9.321057005E-4,3.994738800E-4
1.364187820E0,2.396843163E-3,-9.321057005E-4,-1.731053460E-3
1.366191518E0,-7.989477599E-4,1.198421582E-3,3.994738800E-4
1.368195632E0,2.663159103E-4,-1.997369342E-3,3.994738800E-4
1.370200216E0,2.663159103E-4,-9.321057005E-4,-6.657897611E-4
1.372205268E0,-7.989477599E-4,1.331579551E-4,3.994738800E-4
1.374210789E0,-1.864211401E-3,-9.321057005E-4,3.994738800E-4
1.376216778E0,2.663159103E-4,-9.321057005E-4,3.994738800E-4
1.378223184E0,2.663159103E-4,-9.321057005E-4,-6.657897611E-4
1.380229955E0,-1.864211401E-3,-9.321057005E-4,3.994738800E-4
1.382237039E0,2.663159103E-4,1.331579551E-4,3.994738800E-4
1.384244382E0,1.331579522E-3,1.331579551E-4,-6.657897611E-4
1.386251882E0,2.663159103E-4,-9.321057005E-4,3.994738800E-4
1.388259434E0,1.331579522E-3,1.198421582E-3,1.464737463E-3
1.390272403E0,2.396843163E-3,1.198421582E-3,3.994738800E-4
1.392272976E0,2.663159103E-4,1.331579551E-4,2.530001104E-3
1.394273705E0,-7.989477599E-4,1.198421582E-3,3.994738800E-4
1.396274799E0,3.462106921E-3,1.331579551E-4,3.994738800E-4
1.398276414E0,2.396843163E-3,1.331579551E-4,1.464737463E-3
1.400278705E0,4.527370445E-3,1.331579551E-4,3.994738800E-4
1.402281778E0,2.663159103E-4,1.331579551E-4,-6.657897611E-4
1.404285684E0,2.663159103E-4,1.331579551E-4,-6.657897611E-4
1.406290476E0,2.663159103E-4,1.331579551E-4,3.994738800E-4
1.408296101E0,-7.989477599E-4,1.331579551E-4,3.994738800E-4
1.410302559E0,1.331579522E-3,-9.321057005E-4,1.464737463E-3
1.412309747E0,-7.989477599E-4,-9.321057005E-4,1.464737463E-3
1.414317611E0,1.331579522E-3,-1.997369342E-3,2.530001104E-3
1.416325997E0,1.331579522E-3,1.331579551E-4,3.994738800E-4
1.418338445E0,2.663159103E-4,2.263685223E-3,3.994738800E-4
1.420350893E0,-7.989477599E-4,1.198421582E-3,1.464737463E-3
1.422356153E0,1.331579522E-3,-1.997369342E-3,1.464737463E-3
1.424358705E0,2.663159103E-4,-9.321057005E-4,3.994738800E-4
1.426361466E0,2.663159103E-4,-9.321057005E-4,3.994738800E-4
1.428365111E0,-7.989477599E-4,-9.321057005E-4,3.994738800E-4
1.430368809E0,-7.989477599E-4,-1.997369342E-3,3.994738800E-4
1.432372924E0,2.663159103E-4,1.331579551E-4,1.464737463E-3
1.434377507E0,1.331579522E-3,1.331579551E-4,1.464737463E-3
1.436382559E0,2.663159103E-4,-9.321057005E-4,-6.657897611E-4
1.438388080E0,1.331579522E-3,-9.321057005E-4,3.994738800E-4
1.440394070E0,-1.864211401E-3,-1.997369342E-3,2.530001104E-3
1.442400476E0,-1.864211401E-3,-9.321057005E-4,1.464737463E-3
1.444407247E0,-7.989477599E-4,-9.321057005E-4,-1.731053460E-3
1.446414330E0,-7.989477599E-4,-1.997369342E-3,3.994738800E-4
1.448421674E0,-1.864211401E-3,1.331579551E-4,1.464737463E-3
1.450429174E0,2.663159103E-4,-1.997369342E-3,1.464737463E-3
1.452436778E0,1.331579522E-3,-1.997369342E-3,3.994738800E-4
1.454449799E0,-7.989477599E-4,-9.321057005E-4,1.464737463E-3
1.456450424E0,-7.989477599E-4,-9.321057005E-4,1.464737463E-3
1.458451205E0,-7.989477599E-4,-9.321057005E-4,3.994738800E-4
1.460452351E0,2.663159103E-4,-9.321057005E-4,1.464737463E-3
1.462454018E0,2.663159103E-4,1.331579551E-4,2.530001104E-3
1.464456361E0,2.663159103E-4,1.198421582E-3,-6.657897611E-4
1.466459434E0,-1.864211401E-3,1.198421582E-3,-6.657897611E-4
1.468463341E0,1.331579522E-3,1.198421582E-3,-6.657897611E-4
1.470468080E0,2.663159103E-4,1.331579551E-4,-6.657897611E-4
1.472473653E0,2.396843163E-3,1.331579551E-4,-6.657897611E-4
1.474480059E0,2.663159103E-4,1.198421582E-3,3.994738800E-4
1.476487195E0,-2.929474926E-3,1.331579551E-4,1.464737463E-3
1.478495007E0,2.663159103E-4,1.331579551E-4,1.464737463E-3
1.480503341E0,-7.989477599E-4,1.331579551E-4,3.994738800E-4
1.482512091E0,2.663159103E-4,1.198421582E-3,1.464737463E-3
1.484521101E0,-7.989477599E-4,1.331579551E-4,2.530001104E-3
1.486530216E0,-2.929474926E-3,-1.997369342E-3,3.994738800E-4
1.488539174E0,-7.989477599E-4,1.198421582E-3,1.464737463E-3
1.490544747E0,1.331579522E-3,1.331579551E-4,3.994738800E-4
1.492550268E0,2.663159103E-4,1.331579551E-4,3.994738800E-4
1.494553080E0,2.663159103E-4,-9.321057005E-4,3.994738800E-4
1.496556101E0,-7.989477599E-4,1.198421582E-3,3.994738800E-4
1.498559434E0,-7.989477599E-4,1.331579551E-4,3.994738800E-4
1.500563132E0,2.663159103E-4,-9.321057005E-4,-6.657897611E-4
1.502567247E0,1.331579522E-3,1.331579551E-4,3.994738800E-4
1.504571830E0,2.663159103E-4,1.331579551E-4,3.994738800E-4
1.506576882E0,-1.864211401E-3,-9.321057005E-4,1.464737463E-3
1.508582403E0,1.331579522E-3,1.198421582E-3,3.994738800E-4
1.510588393E0,1.331579522E-3,-9.321057005E-4,-6.657897611E-4
1.512594799E0,-7.989477599E-4,1.331579551E-4,-6.657897611E-4
1.514601570E0,2.663159103E-4,1.198421582E-3,-6.657897611E-4
1.516608653E0,1.331579522E-3,1.331579551E-4,3.994738800E-4
1.518615997E0,-7.989477599E-4,-9.321057005E-4,-6.657897611E-4
1.520623497E0,2.396843163E-3,-9.321057005E-4,3.994738800E-4
1.522631049E0,2.396843163E-3,-9.321057005E-4,3.994738800E-4
1.524638601E0,1.331579522E-3,-9.321057005E-4,-6.657897611E-4
1.526644591E0,2.663159103E-4,1.331579551E-4,-6.657897611E-4
1.528650164E0,-7.989477599E-4,1.331579551E-4,1.464737463E-3
1.530655684E0,2.663159103E-4,1.198421582E-3,1.464737463E-3
1.532666622E0,-7.989477599E-4,-1.997369342E-3,1.464737463E-3
1.534666778E0,-7.989477599E-4,1.331579551E-4,2.530001104E-3
1.536667143E0,-7.989477599E-4,1.198421582E-3,1.464737463E-3
1.538667872E0,-1.864211401E-3,1.331579551E-4,3.994738800E-4
1.540669174E0,-7.989477599E-4,-9.321057005E-4,3.994738800E-4
1.542671205E0,1.331579522E-3,1.198421582E-3,2.530001104E-3
1.544674070E0,2.663159103E-4,1.331579551E-4,3.994738800E-4
1.546677820E0,-7.989477599E-4,1.331579551E-4,3.994738800E-4
1.548682507E0,2.663159103E-4,1.198421582E-3,3.994738800E-4
1.550688132E0,2.663159103E-4,-9.321057005E-4,3.994738800E-4
1.552694643E0,-7.989477599E-4,-9.321057005E-4,1.464737463E-3
1.554701986E0,2.663159103E-4,1.198421582E-3,2.530001104E-3
1.556710059E0,-7.989477599E-4,2.263685223E-3,3.994738800E-4
1.558718705E0,-7.989477599E-4,1.331579551E-4,-6.657897611E-4
1.560727768E0,-7.989477599E-4,-9.321057005E-4,3.994738800E-4
1.562737091E0,-7.989477599E-4,1.331579551E-4,2.530001104E-3
1.564746518E0,-1.864211401E-3,1.198421582E-3,2.530001104E-3
1.566755528E0,-2.929474926E-3,1.331579551E-4,2.530001104E-3
1.568761101E0,-7.989477599E-4,1.198421582E-3,1.464737463E-3
1.570766622E0,2.663159103E-4,1.331579551E-4,2.530001104E-3
1.572769434E0,1.331579522E-3,3.328948980E-3,3.994738800E-4
1.574772455E0,1.331579522E-3,1.198421582E-3,1.464737463E-3
1.576775789E0,2.663159103E-4,1.198421582E-3,1.464737463E-3
1.578779486E0,-7.989477599E-4,1.198421582E-3,3.994738800E-4
1.580783601E0,-1.864211401E-3,1.198421582E-3,3.994738800E-4
1.582788184E0,-7.989477599E-4,1.198421582E-3,1.464737463E-3
1.584793236E0,-7.989477599E-4,1.331579551E-4,1.464737463E-3
1.586798757E0,2.663159103E-4,1.198421582E-3,2.530001104E-3
1.588804747E0,-7.989477599E-4,1.198421582E-3,1.464737463E-3
1.590811153E0,-1.864211401E-3,1.331579551E-4,1.464737463E-3
1.592817924E0,1.331579522E-3,-9.321057005E-4,1.464737463E-3
1.594825007E0,1.331579522E-3,1.331579551E-4,1.464737463E-3
1.596832351E0,2.663159103E-4,1.198421582E-3,-6.657897611E-4
1.598843549E0,-7.989477599E-4,1.331579551E-4,3.994738800E-4
1.600854747E0,-7.989477599E-4,1.331579551E-4,1.464737463E-3
1.602855372E0,1.331579522E-3,1.331579551E-4,3.994738800E-4
1.604856153E0,-1.864211401E-3,-9.321057005E-4,1.464737463E-3
1.606857299E0,-7.989477599E-4,1.331579551E-4,3.994738800E-4
1.608859539E0,1.331579522E-3,1.198421582E-3,3.994738800E-4
1.610863861E0,-1.864211401E-3,1.331579551E-4,-6.657897611E-4
1.612868757E0,-1.864211401E-3,1.198421582E-3,1.464737463E-3
1.614874226E0,-7.989477599E-4,1.198421582E-3,2.530001104E-3
1.616880268E0,2.663159103E-4,1.331579551E-4,1.464737463E-3
1.618886830E0,-7.989477599E-4,-9.321057005E-4,2.530001104E-3
1.620893861E0,-1.864211401E-3,-9.321057005E-4,1.464737463E-3
1.622901257E0,1.331579522E-3,1.331579551E-4,-6.657897611E-4
1.624908914E0,2.663159103E-4,1.198421582E-3,-6.657897611E-4
1.626916778E0,2.663159103E-4,1.198421582E-3,3.994738800E-4
1.628924747E0,-7.989477599E-4,1.331579551E-4,3.994738800E-4
1.630938132E0,-1.864211401E-3,-9.321057005E-4,3.994738800E-4
1.632938601E0,2.663159103E-4,-9.321057005E-4,3.994738800E-4
1.634939226E0,1.331579522E-3,1.331579551E-4,3.994738800E-4
1.636940216E0,-1.864211401E-3,1.198421582E-3,1.464737463E-3
1.638941726E0,-7.989477599E-4,-9.321057005E-4,-6.657897611E-4
1.640943914E0,1.331579522E-3,-9.321057005E-4,3.994738800E-4
1.642946882E0,1.331579522E-3,1.331579551E-4,3.994738800E-4
1.644950684E0,-7.989477599E-4,1.198421582E-3,1.464737463E-3
1.646956570E0,2.663159103E-4,1.198421582E-3,1.464737463E-3
1.648962924E0,2.663159103E-4,1.331579551E-4,3.994738800E-4
1.650970007E0,-7.989477599E-4,-9.321057005E-4,3.994738800E-4
1.652977768E0,2.663159103E-4,1.331579551E-4,1.464737463E-3
1.654986049E0,-7.989477599E-4,-9.321057005E-4,3.994738800E-4
1.656994747E0,-7.989477599E-4,1.331579551E-4,3.994738800E-4
1.659003705E0,2.663159103E-4,2.263685223E-3,3.994738800E-4
1.661012768E0,-7.989477599E-4,-9.321057005E-4,3.994738800E-4
1.663021778E0,1.331579522E-3,1.331579551E-4,-6.657897611E-4
1.665027351E0,2.663159103E-4,1.331579551E-4,1.464737463E-3
1.667030216E0,-2.929474926E-3,1.198421582E-3,3.994738800E-4
1.669033289E0,-7.989477599E-4,1.331579551E-4,1.464737463E-3
1.671036622E0,-7.989477599E-4,-9.321057005E-4,3.994738800E-4
1.673040320E0,2.663159103E-4,-1.997369342E-3,1.464737463E-3
1.675044434E0,-7.989477599E-4,1.198421582E-3,3.994738800E-4
1.677049018E0,2.663159103E-4,1.331579551E-4,3.994738800E-4
1.679054070E0,2.663159103E-4,1.331579551E-4,3.994738800E-4
1.681059591E0,2.663159103E-4,-1.997369342E-3,3.994738800E-4
1.683065580E0,3.462106921E-3,1.331579551E-4,-6.657897611E-4
1.685071986E0,-2.929474926E-3,-9.321057005E-4,3.994738800E-4
1.687078757E0,-1.864211401E-3,-3.062632866E-3,-6.657897611E-4
1.689085841E0,-7.989477599E-4,-1.997369342E-3,-6.657897611E-4
1.691093184E0,-7.989477599E-4,-4.127896391E-3,3.994738800E-4
1.693100684E0,-1.864211401E-3,1.331579551E-4,3.994738800E-4
1.695108236E0,-1.864211401E-3,-1.997369342E-3,3.994738800E-4
1.697121205E0,2.663159103E-4,-9.321057005E-4,3.994738800E-4
1.699121674E0,2.663159103E-4,-9.321057005E-4,-6.657897611E-4
1.701122299E0,-7.989477599E-4,-9.321057005E-4,1.464737463E-3
1.703123289E0,-7.989477599E-4,1.331579551E-4,3.994738800E-4
1.705124278E0,-7.989477599E-4,1.331579551E-4,1.464737463E-3
1.707125997E0,-1.864211401E-3,-3.062632866E-3,3.994738800E-4
1.709128549E0,-2.929474926E-3,-9.321057005E-4,1.464737463E-3
1.711132039E0,2.663159103E-4,-9.321057005E-4,3.994738800E-4
1.713136518E0,-7.989477599E-4,1.331579551E-4,-6.657897611E-4
1.715141986E0,2.396843163E-3,1.331579551E-4,-6.657897611E-4
1.717148393E0,1.331579522E-3,1.331579551E-4,-1.731053460E-3
1.719155684E0,2.663159103E-4,-9.321057005E-4,3.994738800E-4
1.721163757E0,1.331579522E-3,1.331579551E-4,-6.657897611E-4
1.723172455E0,-7.989477599E-4,-9.321057005E-4,3.994738800E-4
1.725181622E0,2.663159103E-4,-9.321057005E-4,3.994738800E-4
1.727191101E0,1.331579522E-3,1.198421582E-3,3.994738800E-4
1.729200736E0,-1.864211401E-3,-9.321057005E-4,3.994738800E-4
1.731207664E0,2.663159103E-4,-9.321057005E-4,1.464737463E-3
1.733214643E0,2.663159103E-4,-9.321057005E-4,-1.731053460E-3
1.735221518E0,2.663159103E-4,1.198421582E-3,1.464737463E-3
1.737227039E0,1.331579522E-3,-9.321057005E-4,3.994738800E-4
1.739237976E0,-7.989477599E-4,-9.321057005E-4,-6.657897611E-4
1.741238132E0,2.663159103E-4,-1.997369342E-3,3.994738800E-4
1.743238289E0,1.331579522E-3,1.331579551E-4,3.994738800E-4
1.745238861E0,2.663159103E-4,1.331579551E-4,-6.657897611E-4
1.747240007E0,1.331579522E-3,-1.997369342E-3,-6.657897611E-4
1.749241882E0,1.331579522E-3,-9.321057005E-4,3.994738800E-4
1.751244643E0,2.663159103E-4,1.331579551E-4,3.994738800E-4
1.753248341E0,2.663159103E-4,-9.321057005E-4,3.994738800E-4
1.755253028E0,2.663159103E-4,1.331579551E-4,3.994738800E-4
1.757258705E0,2.663159103E-4,-9.321057005E-4,3.994738800E-4
1.759265320E0,1.331579522E-3,1.331579551E-4,-6.657897611E-4
1.761272768E0,1.331579522E-3,1.198421582E-3,3.994738800E-4
1.763280945E0,1.331579522E-3,1.198421582E-3,3.994738800E-4
1.765289747E0,1.331579522E-3,-9.321057005E-4,-6.657897611E-4
1.767299018E0,1.331579522E-3,-9.321057005E-4,3.994738800E-4
1.769308549E0,2.663159103E-4,-9.321057005E-4,3.994738800E-4
1.771318184E0,1.331579522E-3,1.331579551E-4,3.994738800E-4
1.773326934E0,2.663159103E-4,-9.321057005E-4,3.994738800E-4
1.775332455E0,2.663159103E-4,1.331579551E-4,-1.731053460E-3
1.777335268E0,-7.989477599E-4,1.331579551E-4,1.464737463E-3
1.779342039E0,2.663159103E-4,-1.997369342E-3,1.464737463E-3
1.781348809E0,-7.989477599E-4,-1.997369342E-3,3.994738800E-4
1.783354643E0,-7.989477599E-4,-9.321057005E-4,3.994738800E-4
1.785360216E0,2.663159103E-4,1.331579551E-4,1.464737463E-3
1.787365736E0,-7.989477599E-4,1.331579551E-4,2.530001104E-3
1.789371882E0,-7.989477599E-4,-1.997369342E-3,3.994738800E-4
1.791369226E0,1.331579522E-3,1.331579551E-4,1.464737463E-3
1.793367195E0,-7.989477599E-4,1.331579551E-4,-6.657897611E-4
1.795366049E0,2.663159103E-4,-9.321057005E-4,-6.657897611E-4
1.797365997E0,-7.989477599E-4,-9.321057005E-4,3.994738800E-4
1.799367247E0,-7.989477599E-4,1.331579551E-4,3.994738800E-4
1.801369903E0,1.331579522E-3,1.331579551E-4,1.464737463E-3
1.803374018E0,-7.989477599E-4,-9.321057005E-4,3.994738800E-4
1.805379591E0,1.331579522E-3,1.331579551E-4,3.994738800E-4
1.807386570E0,2.663159103E-4,-9.321057005E-4,3.994738800E-4
1.809394851E0,2.663159103E-4,1.331579551E-4,3.994738800E-4
1.811404278E0,2.663159103E-4,-9.321057005E-4,1.464737463E-3
1.813414643E0,2.663159103E-4,-9.321057005E-4,1.464737463E-3
1.815425736E0,-7.989477599E-4,-9.321057005E-4,3.994738800E-4
1.817437976E0,-1.864211401E-3,1.331579551E-4,3.994738800E-4
1.819450216E0,2.663159103E-4,-1.997369342E-3,3.994738800E-4
1.821460059E0,-7.989477599E-4,-9.321057005E-4,3.994738800E-4
1.823465580E0,-7.989477599E-4,1.331579551E-4,3.994738800E-4
1.825476518E0,2.663159103E-4,1.331579551E-4,1.464737463E-3
1.827476674E0,2.663159103E-4,1.331579551E-4,1.464737463E-3
1.829477039E0,-7.989477599E-4,2.263685223E-3,3.994738800E-4
1.831477820E0,-1.864211401E-3,1.331579551E-4,1.464737463E-3
1.833479174E0,1.331579522E-3,-9.321057005E-4,3.994738800E-4
1.835481257E0,2.663159103E-4,1.331579551E-4,3.994738800E-4
1.837484174E0,-7.989477599E-4,1.331579551E-4,1.464737463E-3
1.839487976E0,2.663159103E-4,1.331579551E-4,1.464737463E-3
1.841492716E0,-7.989477599E-4,-9.321057005E-4,2.530001104E-3
1.843498393E0,1.331579522E-3,-9.321057005E-4,3.994738800E-4
1.845504955E0,-7.989477599E-4,-9.321057005E-4,1.464737463E-3
1.847512299E0,2.663159103E-4,-9.321057005E-4,-6.657897611E-4
1.849520320E0,-1.864211401E-3,-9.321057005E-4,3.994738800E-4
1.851528914E0,-1.864211401E-3,-1.997369342E-3,-6.657897611E-4
1.853537924E0,-7.989477599E-4,-9.321057005E-4,-6.657897611E-4
1.855547299E0,-7.989477599E-4,-9.321057005E-4,3.994738800E-4
1.857556674E0,2.663159103E-4,-1.997369342E-3,-6.657897611E-4
1.859565476E0,-7.989477599E-4,-9.321057005E-4,-6.657897611E-4
1.861570997E0,-7.989477599E-4,-1.997369342E-3,1.464737463E-3
1.863573809E0,1.331579522E-3,1.331579551E-4,3.994738800E-4
1.865576830E0,2.663159103E-4,-9.321057005E-4,-6.657897611E-4
1.867580164E0,2.663159103E-4,1.331579551E-4,-6.657897611E-4
1.869583861E0,-7.989477599E-4,1.331579551E-4,3.994738800E-4
1.871587976E0,2.663159103E-4,1.331579551E-4,1.464737463E-3
1.873592559E0,2.663159103E-4,-9.321057005E-4,3.994738800E-4
1.875597611E0,-7.989477599E-4,-9.321057005E-4,3.994738800E-4
1.877603132E0,2.663159103E-4,-9.321057005E-4,1.464737463E-3
1.879609122E0,-7.989477599E-4,1.331579551E-4,-6.657897611E-4
1.881615528E0,2.663159103E-4,1.198421582E-3,-6.657897611E-4
1.883622299E0,-1.864211401E-3,1.198421582E-3,1.464737463E-3
1.885629382E0,-7.989477599E-4,1.331579551E-4,1.464737463E-3
1.887636726E0,2.663159103E-4,-9.321057005E-4,-6.657897611E-4
1.889644226E0,2.663159103E-4,1.331579551E-4,-1.731053460E-3
1.891651778E0,-7.989477599E-4,1.331579551E-4,1.464737463E-3
1.893660007E0,2.663159103E-4,1.331579551E-4,2.530001104E-3
1.895669070E0,-7.989477599E-4,1.331579551E-4,1.464737463E-3
1.897670893E0,-7.989477599E-4,-9.321057005E-4,1.464737463E-3
1.899672820E0,-2.929474926E-3,1.331579551E-4,1.464737463E-3
1.901675007E0,2.663159103E-4,1.198421582E-3,3.994738800E-4
1.903677559E0,2.663159103E-4,-9.321057005E-4,1.464737463E-3
1.905680580E0,-7.989477599E-4,2.263685223E-3,-6.657897611E-4
1.907684174E0,-7.989477599E-4,-9.321057005E-4,1.464737463E-3
1.909688393E0,-2.929474926E-3,-9.321057005E-4,1.464737463E-3
1.911693289E0,-7.989477599E-4,1.331579551E-4,3.994738800E-4
1.913698861E0,1.331579522E-3,-9.321057005E-4,3.994738800E-4
1.915705059E0,-1.864211401E-3,1.331579551E-4,3.994738800E-4
1.917711830E0,2.663159103E-4,1.331579551E-4,-1.731053460E-3
1.919719122E0,-7.989477599E-4,1.331579551E-4,-6.657897611E-4
1.921726830E0,-7.989477599E-4,1.331579551E-4,-6.657897611E-4
1.923734851E0,2.663159103E-4,-9.321057005E-4,3.994738800E-4
1.925743080E0,2.663159103E-4,1.331579551E-4,1.464737463E-3
1.927751414E0,2.396843163E-3,1.331579551E-4,-6.657897611E-4
1.929759643E0,1.331579522E-3,1.198421582E-3,-1.731053460E-3
1.931766726E0,2.663159103E-4,1.331579551E-4,-6.657897611E-4
1.933776205E0,2.663159103E-4,-9.321057005E-4,-6.657897611E-4
1.935776309E0,1.331579522E-3,1.331579551E-4,-1.731053460E-3
1.937776622E0,2.663159103E-4,-1.997369342E-3,-1.731053460E-3
1.939777351E0,-7.989477599E-4,-9.321057005E-4,3.994738800E-4
1.941778653E0,1.331579522E-3,-1.997369342E-3,1.464737463E-3
1.943780684E0,1.331579522E-3,-9.321057005E-4,1.464737463E-3
1.945783549E0,2.663159103E-4,-9.321057005E-4,1.464737463E-3
1.947787299E0,2.396843163E-3,1.331579551E-4,3.994738800E-4
1.949791986E0,2.396843163E-3,1.331579551E-4,-6.657897611E-4
1.951797611E0,2.663159103E-4,-1.997369342E-3,-6.657897611E-4
1.953804122E0,2.663159103E-4,-1.997369342E-3,1.464737463E-3
1.955811466E0,-7.989477599E-4,-1.997369342E-3,1.464737463E-3
1.957819539E0,-1.864211401E-3,-3.062632866E-3,1.464737463E-3
1.959828184E0,2.663159103E-4,-1.997369342E-3,1.464737463E-3
1.961837247E0,1.331579522E-3,-1.997369342E-3,1.464737463E-3
1.963846570E0,2.663159103E-4,-9.321057005E-4,1.464737463E-3
1.965855997E0,-1.864211401E-3,-1.997369342E-3,3.994738800E-4
1.967865059E0,1.331579522E-3,-1.997369342E-3,1.464737463E-3
1.969870632E0,-7.989477599E-4,-3.062632866E-3,1.464737463E-3
1.971876153E0,1.331579522E-3,-9.321057005E-4,1.464737463E-3
1.973887091E0,-7.989477599E-4,-1.997369342E-3,1.464737463E-3
1.975887247E0,-7.989477599E-4,-1.997369342E-3,1.464737463E-3
1.977887611E0,-7.989477599E-4,-1.997369342E-3,3.994738800E-4
1.979888341E0,-1.864211401E-3,-1.997369342E-3,3.994738800E-4
1.981889643E0,3.462106921E-3,-1.997369342E-3,3.994738800E-4
1.983891674E0,2.663159103E-4,1.331579551E-4,3.994738800E-4
1.985894539E0,2.663159103E-4,-9.321057005E-4,-6.657897611E-4
1.987898289E0,-1.864211401E-3,-1.997369342E-3,-6.657897611E-4
1.989902976E0,2.663159103E-4,-9.321057005E-4,3.994738800E-4
1.991908601E0,-7.989477599E-4,-1.997369342E-3,3.994738800E-4
1.993915111E0,-7.989477599E-4,-3.062632866E-3,-1.731053460E-3
1.995922455E0,-7.989477599E-4,-9.321057005E-4,1.464737463E-3
1.997930528E0,-7.989477599E-4,-1.997369342E-3,3.994738800E-4
1.999939174E0,2.396843163E-3,1.331579551E-4,-6.657897611E-4
2.001948236E0,2.663159103E-4,-9.321057005E-4,3.994738800E-4
2.003957559E0,2.663159103E-4,-1.997369342E-3,1.464737463E-3
2.005966986E0,2.663159103E-4,-3.062632866E-3,3.994738800E-4
2.007976049E0,2.663159103E-4,-3.062632866E-3,3.994738800E-4
2.009981570E0,-1.864211401E-3,-9.321057005E-4,1.464737463E-3
2.011984382E0,-1.864211401E-3,-1.997369342E-3,3.994738800E-4
2.013987403E0,-7.989477599E-4,-1.997369342E-3,3.994738800E-4
2.015990736E0,-7.989477599E-4,1.198421582E-3,-6.657897611E-4
2.017994434E0,-7.989477599E-4,-9.321057005E-4,1.464737463E-3
2.019998549E0,-7.989477599E-4,-9.321057005E-4,1.464737463E-3
2.022003132E0,-7.989477599E-4,-1.997369342E-3,1.464737463E-3
2.024008184E0,2.663159103E-4,-9.321057005E-4,3.994738800E-4
2.026013705E0,1.331579522E-3,1.198421582E-3,3.994738800E-4
2.028019695E0,2.663159103E-4,1.198421582E-3,3.994738800E-4
2.030026101E0,2.663159103E-4,-9.321057005E-4,-6.657897611E-4
2.032032872E0,3.462106921E-3,1.331579551E-4,-6.657897611E-4
2.034039955E0,3.462106921E-3,-9.321057005E-4,3.994738800E-4
2.036047299E0,-1.864211401E-3,-9.321057005E-4,3.994738800E-4
2.038054799E0,2.663159103E-4,-1.997369342E-3,3.994738800E-4
2.040062351E0,2.663159103E-4,1.331579551E-4,1.464737463E-3
2.042075320E0,3.462106921E-3,1.331579551E-4,-6.657897611E-4
2.044075893E0,1.331579522E-3,-9.321057005E-4,3.994738800E-4
2.046076622E0,1.331579522E-3,-9.321057005E-4,3.994738800E-4
2.048077716E0,2.396843163E-3,-9.321057005E-4,1.464737463E-3
2.050079330E0,1.331579522E-3,1.331579551E-4,1.464737463E-3
2.052081622E0,2.663159103E-4,1.198421582E-3,3.994738800E-4
2.054084695E0,-1.864211401E-3,-9.321057005E-4,3.994738800E-4
2.056088601E0,-7.989477599E-4,1.198421582E-3,3.994738800E-4
2.058093393E0,2.663159103E-4,1.331579551E-4,3.994738800E-4
2.060099018E0,2.663159103E-4,1.198421582E-3,3.994738800E-4
2.062105476E0,-7.989477599E-4,1.331579551E-4,-6.657897611E-4
2.064112664E0,2.663159103E-4,1.331579551E-4,3.994738800E-4
2.066120528E0,2.396843163E-3,1.198421582E-3,-6.657897611E-4
2.068128914E0,1.331579522E-3,1.198421582E-3,-2.796316985E-3
2.070137716E0,1.331579522E-3,1.331579551E-4,-6.657897611E-4
2.072146778E0,2.396843163E-3,1.331579551E-4,1.464737463E-3
2.074155945E0,2.663159103E-4,3.328948980E-3,-6.657897611E-4
2.076164695E0,-7.989477599E-4,1.198421582E-3,1.464737463E-3
2.078170216E0,2.663159103E-4,-9.321057005E-4,3.994738800E-4
2.080173028E0,2.663159103E-4,-1.997369342E-3,3.994738800E-4
2.082176049E0,2.663159103E-4,1.331579551E-4,3.994738800E-4
2.084179382E0,-1.864211401E-3,3.328948980E-3,3.994738800E-4
2.086183080E0,2.663159103E-4,1.331579551E-4,2.530001104E-3
2.088187195E0,1.331579522E-3,-9.321057005E-4,3.994738800E-4
2.090191778E0,1.331579522E-3,-9.321057005E-4,3.994738800E-4
2.092196830E0,2.396843163E-3,-9.321057005E-4,1.464737463E-3
2.094202351E0,1.331579522E-3,-1.997369342E-3,1.464737463E-3
2.096208341E0,-7.989477599E-4,-1.997369342E-3,3.994738800E-4
2.098214747E0,-7.989477599E-4,-9.321057005E-4,3.994738800E-4
2.100221518E0,2.663159103E-4,-3.062632866E-3,1.464737463E-3
2.102228601E0,-1.864211401E-3,-3.062632866E-3,3.994738800E-4
2.104235684E0,-7.989477599E-4,-3.062632866E-3,-6.657897611E-4
2.106242924E0,2.396843163E-3,-1.997369342E-3,1.464737463E-3
2.108250268E0,1.331579522E-3,-1.997369342E-3,3.994738800E-4
2.110257664E0,-1.864211401E-3,-9.321057005E-4,1.464737463E-3
2.112264539E0,-1.864211401E-3,-3.062632866E-3,1.464737463E-3
2.114270111E0,-1.864211401E-3,-5.193160381E-3,1.464737463E-3
2.116275632E0,1.331579522E-3,-5.193160381E-3,3.994738800E-4
2.118286570E0,2.396843163E-3,-1.997369342E-3,-6.657897611E-4
2.120286726E0,-7.989477599E-4,1.331579551E-4,-6.657897611E-4
2.122287091E0,-7.989477599E-4,-9.321057005E-4,1.464737463E-3
2.124287820E0,2.663159103E-4,-6.258423906E-3,1.464737463E-3
2.126289122E0,-7.989477599E-4,-5.193160381E-3,3.994738800E-4
2.128291153E0,-7.989477599E-4,-9.321057005E-4,3.994738800E-4
2.130294018E0,1.331579522E-3,-9.321057005E-4,3.994738800E-4
2.132297768E0,2.663159103E-4,-9.321057005E-4,-6.657897611E-4
2.134302455E0,2.663159103E-4,-9.321057005E-4,3.994738800E-4
2.136308080E0,-7.989477599E-4,-9.321057005E-4,3.994738800E-4
2.138314591E0,2.663159103E-4,-1.997369342E-3,1.464737463E-3
2.140321934E0,1.331579522E-3,-1.997369342E-3,2.530001104E-3
2.142330007E0,2.663159103E-4,1.331579551E-4,1.464737463E-3
2.144338653E0,-7.989477599E-4,1.331579551E-4,-6.657897611E-4
2.146347716E0,-7.989477599E-4,-1.997369342E-3,-1.731053460E-3
2.148357039E0,-7.989477599E-4,-9.321057005E-4,1.464737463E-3
2.150366466E0,-1.864211401E-3,2.263685223E-3,-6.657897611E-4
2.152375528E0,-7.989477599E-4,1.198421582E-3,3.994738800E-4
2.154381101E0,-7.989477599E-4,1.198421582E-3,3.994738800E-4
2.156386622E0,-1.864211401E-3,1.198421582E-3,-1.731053460E-3
2.158389434E0,2.663159103E-4,1.331579551E-4,-6.657897611E-4
2.160392455E0,1.331579522E-3,-9.321057005E-4,-6.657897611E-4
2.162395789E0,-7.989477599E-4,1.198421582E-3,3.994738800E-4
2.164399486E0,2.663159103E-4,2.263685223E-3,3.994738800E-4
2.166403601E0,2.663159103E-4,1.198421582E-3,1.464737463E-3
2.168408184E0,2.663159103E-4,1.331579551E-4,3.994738800E-4
2.170413236E0,2.663159103E-4,1.198421582E-3,-6.657897611E-4
2.172418757E0,2.663159103E-4,1.198421582E-3,3.994738800E-4
2.174424747E0,-7.989477599E-4,4.394212738E-3,-6.657897611E-4
2.176431153E0,-7.989477599E-4,3.328948980E-3,3.994738800E-4
2.178438705E0,-7.989477599E-4,1.198421582E-3,-6.657897611E-4
2.180446257E0,1.331579522E-3,1.198421582E-3,1.464737463E-3
2.182453966E0,1.331579522E-3,1.331579551E-4,1.464737463E-3
2.184461778E0,-7.989477599E-4,1.198421582E-3,3.994738800E-4
2.186475007E0,-7.989477599E-4,2.263685223E-3,3.994738800E-4
2.188475424E0,2.396843163E-3,2.263685223E-3,3.994738800E-4
2.190475997E0,2.663159103E-4,-1.997369342E-3,1.464737463E-3
2.192476934E0,2.663159103E-4,-9.321057005E-4,2.530001104E-3
2.194478393E0,-1.864211401E-3,-9.321057005E-4,3.994738800E-4
2.196480528E0,-7.989477599E-4,-9.321057005E-4,-6.657897611E-4
2.198483445E0,1.331579522E-3,1.331579551E-4,-6.657897611E-4
2.200487247E0,1.331579522E-3,1.198421582E-3,-6.657897611E-4
2.202491934E0,1.331579522E-3,-9.321057005E-4,3.994738800E-4
2.204497507E0,2.663159103E-4,-9.321057005E-4,2.530001104E-3
2.206503966E0,2.663159103E-4,1.331579551E-4,1.464737463E-3
2.208511205E0,-7.989477599E-4,-9.321057005E-4,3.994738800E-4
2.210519122E0,2.663159103E-4,-9.321057005E-4,3.994738800E-4
2.212527611E0,-7.989477599E-4,-9.321057005E-4,1.464737463E-3
2.214536518E0,-7.989477599E-4,-1.997369342E-3,3.994738800E-4
2.216545684E0,-7.989477599E-4,-9.321057005E-4,1.464737463E-3
2.218554955E0,2.663159103E-4,1.331579551E-4,3.994738800E-4
2.220564174E0,1.331579522E-3,-9.321057005E-4,2.530001104E-3
2.222569747E0,2.663159103E-4,-3.062632866E-3,1.464737463E-3
2.224572611E0,-7.989477599E-4,-1.997369342E-3,1.464737463E-3
2.226575684E0,-7.989477599E-4,1.331579551E-4,1.464737463E-3
2.228579018E0,-1.864211401E-3,-9.321057005E-4,2.530001104E-3
2.230582716E0,1.331579522E-3,-3.062632866E-3,3.994738800E-4
2.232586830E0,-7.989477599E-4,-1.997369342E-3,2.530001104E-3
2.234591414E0,-7.989477599E-4,-9.321057005E-4,1.464737463E-3
2.236596466E0,-7.989477599E-4,-9.321057005E-4,1.464737463E-3
2.238601986E0,-7.989477599E-4,-9.321057005E-4,3.994738800E-4
2.240607976E0,-7.989477599E-4,1.331579551E-4,3.994738800E-4
2.242614382E0,-7.989477599E-4,-9.321057005E-4,3.994738800E-4
2.244621153E0,1.331579522E-3,-1.997369342E-3,1.464737463E-3
2.246627924E0,-7.989477599E-4,1.331579551E-4,1.464737463E-3
2.248634955E0,-7.989477599E-4,-9.321057005E-4,3.994738800E-4
2.250642195E0,2.663159103E-4,-1.997369342E-3,3.994738800E-4
2.252649539E0,-7.989477599E-4,-9.321057005E-4,3.994738800E-4
2.254657664E0,2.663159103E-4,-9.321057005E-4,3.994738800E-4
2.256666518E0,2.663159103E-4,1.331579551E-4,3.994738800E-4
2.258669643E0,2.663159103E-4,-9.321057005E-4,1.464737463E-3
2.260672820E0,2.663159103E-4,-1.997369342E-3,-6.657897611E-4
2.262676153E0,1.331579522E-3,1.331579551E-4,3.994738800E-4
2.264679747E0,2.663159103E-4,1.331579551E-4,3.595264861E-3
2.266683653E0,1.331579522E-3,-9.321057005E-4,2.530001104E-3
2.268687924E0,1.331579522E-3,-9.321057005E-4,3.994738800E-4
2.270692611E0,2.663159103E-4,1.331579551E-4,3.994738800E-4
2.272697716E0,2.396843163E-3,1.331579551E-4,-6.657897611E-4
2.274703236E0,2.663159103E-4,1.198421582E-3,-6.657897611E-4
2.276709174E0,2.663159103E-4,1.198421582E-3,-6.657897611E-4
2.278715476E0,2.663159103E-4,-9.321057005E-4,3.994738800E-4
2.280722091E0,1.331579522E-3,-9.321057005E-4,3.994738800E-4
2.282728966E0,1.331579522E-3,1.331579551E-4,-1.731053460E-3
2.284735841E0,2.663159103E-4,1.331579551E-4,3.994738800E-4
2.286742872E0,2.663159103E-4,-9.321057005E-4,-6.657897611E-4
2.288750007E0,-7.989477599E-4,1.198421582E-3,-6.657897611E-4
2.290762559E0,2.663159103E-4,1.198421582E-3,3.994738800E-4
2.292767143E0,1.331579522E-3,1.331579551E-4,3.994738800E-4
2.294771726E0,2.663159103E-4,1.198421582E-3,3.994738800E-4
2.296775059E0,1.331579522E-3,1.198421582E-3,3.994738800E-4
2.298778445E0,2.396843163E-3,1.198421582E-3,3.994738800E-4
2.300781986E0,1.331579522E-3,-9.321057005E-4,3.994738800E-4
2.302785736E0,2.396843163E-3,1.331579551E-4,-6.657897611E-4
2.304789747E0,-7.989477599E-4,1.331579551E-4,-6.657897611E-4
2.306794070E0,-1.864211401E-3,1.331579551E-4,3.994738800E-4
2.308798757E0,-7.989477599E-4,1.331579551E-4,1.464737463E-3
2.310803861E0,-7.989477599E-4,1.331579551E-4,3.994738800E-4
2.312809382E0,-7.989477599E-4,1.331579551E-4,3.994738800E-4
2.314815268E0,2.663159103E-4,1.331579551E-4,3.994738800E-4
2.316821518E0,-7.989477599E-4,1.198421582E-3,1.464737463E-3
2.318828080E0,2.663159103E-4,1.331579551E-4,-6.657897611E-4
2.320837507E0,2.663159103E-4,1.331579551E-4,3.994738800E-4
2.322846934E0,2.663159103E-4,1.198421582E-3,3.994738800E-4
2.324852768E0,2.663159103E-4,1.331579551E-4,1.464737463E-3
2.326858289E0,-7.989477599E-4,1.198421582E-3,3.994738800E-4
2.328861101E0,2.663159103E-4,1.331579551E-4,3.994738800E-4
2.330864851E0,1.331579522E-3,1.331579551E-4,1.464737463E-3
2.332868809E0,1.331579522E-3,-9.321057005E-4,1.464737463E-3
2.334873028E0,-7.989477599E-4,1.331579551E-4,3.994738800E-4
2.336877559E0,-7.989477599E-4,1.331579551E-4,1.464737463E-3
2.338882455E0,2.663159103E-4,-9.321057005E-4,3.994738800E-4
2.340887716E0,-1.864211401E-3,1.331579551E-4,-6.657897611E-4
2.342893341E0,2.663159103E-4,-9.321057005E-4,3.994738800E-4
2.344899330E0,-7.989477599E-4,1.331579551E-4,1.464737463E-3
2.346905632E0,2.663159103E-4,-1.997369342E-3,3.994738800E-4
2.348912195E0,2.663159103E-4,-1.997369342E-3,1.464737463E-3
2.350918966E0,2.663159103E-4,-1.997369342E-3,-6.657897611E-4
2.352925893E0,1.331579522E-3,1.331579551E-4,1.464737463E-3
2.354932924E0,1.331579522E-3,1.198421582E-3,1.464737463E-3
2.356940007E0,2.396843163E-3,-9.321057005E-4,3.994738800E-4
2.358947872E0,-7.989477599E-4,1.331579551E-4,3.994738800E-4
2.360955736E0,2.663159103E-4,-9.321057005E-4,3.994738800E-4
2.362958184E0,1.331579522E-3,1.331579551E-4,3.994738800E-4
2.364960736E0,1.331579522E-3,-9.321057005E-4,1.464737463E-3
2.366963497E0,-1.864211401E-3,-1.997369342E-3,3.994738800E-4
2.368966674E0,-2.929474926E-3,-1.997369342E-3,3.994738800E-4
2.370969955E0,1.331579522E-3,-9.321057005E-4,-6.657897611E-4
2.372973705E0,-7.989477599E-4,1.198421582E-3,1.464737463E-3
2.374977976E0,-7.989477599E-4,-1.997369342E-3,3.994738800E-4
2.376982820E0,1.331579522E-3,-9.321057005E-4,3.994738800E-4
2.378988236E0,2.663159103E-4,1.331579551E-4,3.994738800E-4
2.380994226E0,3.462106921E-3,1.198421582E-3,-6.657897611E-4
2.383000736E0,1.331579522E-3,-9.321057005E-4,3.994738800E-4
2.385007716E0,2.663159103E-4,-9.321057005E-4,3.994738800E-4
2.387015059E0,2.663159103E-4,-9.321057005E-4,1.464737463E-3
2.389022716E0,-1.864211401E-3,-1.997369342E-3,1.464737463E-3
2.391030580E0,2.663159103E-4,1.331579551E-4,3.994738800E-4
2.393038549E0,2.663159103E-4,-9.321057005E-4,1.464737463E-3
2.395051934E0,-2.929474926E-3,1.331579551E-4,3.994738800E-4
2.397056830E0,-7.989477599E-4,1.331579551E-4,3.994738800E-4
2.399061726E0,-7.989477599E-4,1.331579551E-4,-6.657897611E-4
2.401063653E0,1.331579522E-3,2.263685223E-3,3.994738800E-4
2.403065684E0,1.331579522E-3,1.198421582E-3,3.994738800E-4
2.405067976E0,-7.989477599E-4,1.331579551E-4,3.994738800E-4
2.407070632E0,1.331579522E-3,1.198421582E-3,-6.657897611E-4
2.409073757E0,-7.989477599E-4,-9.321057005E-4,-6.657897611E-4
2.411077455E0,-1.864211401E-3,-9.321057005E-4,3.994738800E-4
2.413081778E0,-7.989477599E-4,1.198421582E-3,3.994738800E-4
2.415086726E0,2.663159103E-4,1.198421582E-3,3.994738800E-4
2.417092299E0,-7.989477599E-4,-9.321057005E-4,3.994738800E-4
2.419098497E0,-7.989477599E-4,2.263685223E-3,3.994738800E-4
2.421105268E0,2.396843163E-3,3.328948980E-3,-6.657897611E-4
2.423112507E0,-7.989477599E-4,1.331579551E-4,3.994738800E-4
2.425120164E0,2.396843163E-3,2.263685223E-3,-1.731053460E-3
2.427127820E0,2.663159103E-4,2.263685223E-3,3.994738800E-4
2.429135684E0,-7.989477599E-4,-9.321057005E-4,-6.657897611E-4
2.431143653E0,-7.989477599E-4,-9.321057005E-4,-6.657897611E-4
2.433148914E0,-7.989477599E-4,1.198421582E-3,3.994738800E-4
2.435154278E0,-1.864211401E-3,2.263685223E-3,-6.657897611E-4
2.437159799E0,-2.929474926E-3,1.331579551E-4,3.994738800E-4
2.439165424E0,-7.989477599E-4,1.331579551E-4,3.994738800E-4
2.441171153E0,2.663159103E-4,2.263685223E-3,1.464737463E-3
2.443176986E0,1.331579522E-3,2.263685223E-3,3.994738800E-4
2.445182924E0,-7.989477599E-4,1.198421582E-3,-1.731053460E-3
2.447188914E0,-1.864211401E-3,2.263685223E-3,3.994738800E-4
2.449194955E0,-7.989477599E-4,3.328948980E-3,1.464737463E-3
2.451201049E0,1.331579522E-3,2.263685223E-3,1.464737463E-3
2.453212559E0,2.663159103E-4,1.198421582E-3,2.530001104E-3
2.455213497E0,1.331579522E-3,4.394212738E-3,1.464737463E-3
2.457214591E0,2.663159103E-4,2.263685223E-3,-6.657897611E-4
2.459215997E0,2.663159103E-4,1.331579551E-4,-6.657897611E-4
2.461217872E0,-5.060002208E-3,-9.321057005E-4,1.464737463E-3
2.463220372E0,-7.989477599E-4,1.198421582E-3,2.530001104E-3
2.465223601E0,2.663159103E-4,2.263685223E-3,1.464737463E-3
2.467227611E0,-7.989477599E-4,3.328948980E-3,1.464737463E-3
2.469232403E0,-7.989477599E-4,1.331579551E-4,1.464737463E-3
2.471237976E0,-7.989477599E-4,1.331579551E-4,1.464737463E-3
2.473244330E0,-7.989477599E-4,1.198421582E-3,1.464737463E-3
2.475251414E0,-7.989477599E-4,1.198421582E-3,-6.657897611E-4
2.477259122E0,-7.989477599E-4,1.198421582E-3,1.464737463E-3
2.479267351E0,-2.929474926E-3,2.263685223E-3,3.994738800E-4
2.481275945E0,2.663159103E-4,1.198421582E-3,2.530001104E-3
2.483284799E0,2.663159103E-4,3.328948980E-3,1.464737463E-3
2.485293757E0,2.663159103E-4,3.328948980E-3,-6.657897611E-4
2.487302299E0,-7.989477599E-4,3.328948980E-3,3.994738800E-4
2.489307872E0,-2.929474926E-3,3.328948980E-3,-6.657897611E-4
2.491313393E0,-3.994738683E-3,1.331579551E-4,3.994738800E-4
2.493316205E0,-1.864211401E-3,1.331579551E-4,-6.657897611E-4
2.495319226E0,-7.989477599E-4,2.263685223E-3,3.994738800E-4
2.497322559E0,-7.989477599E-4,3.328948980E-3,-6.657897611E-4
2.499326257E0,-7.989477599E-4,1.331579551E-4,-1.731053460E-3
2.501334278E0,-7.989477599E-4,2.263685223E-3,3.994738800E-4
2.503342299E0,2.663159103E-4,2.263685223E-3,3.994738800E-4
2.505350372E0,-1.864211401E-3,2.263685223E-3,-6.657897611E-4
2.507357820E0,-7.989477599E-4,1.198421582E-3,-6.657897611E-4
2.509363341E0,2.663159103E-4,1.198421582E-3,-6.657897611E-4
2.511369591E0,2.396843163E-3,1.331579551E-4,-6.657897611E-4
2.513377039E0,-7.989477599E-4,1.198421582E-3,3.994738800E-4
2.515380007E0,2.663159103E-4,4.394212738E-3,2.530001104E-3
2.517383028E0,-7.989477599E-4,2.263685223E-3,1.464737463E-3
2.519386205E0,-1.864211401E-3,1.198421582E-3,3.994738800E-4
2.521389643E0,-2.929474926E-3,1.331579551E-4,3.994738800E-4
2.523393445E0,-7.989477599E-4,1.331579551E-4,1.464737463E-3
2.525397664E0,-7.989477599E-4,1.331579551E-4,1.464737463E-3
2.527402299E0,2.663159103E-4,1.198421582E-3,1.464737463E-3
2.529407403E0,2.663159103E-4,1.198421582E-3,2.530001104E-3
2.531412976E0,-2.929474926E-3,1.198421582E-3,1.464737463E-3
2.533418966E0,-1.864211401E-3,1.331579551E-4,1.464737463E-3
2.535425372E0,-7.989477599E-4,1.198421582E-3,1.464737463E-3
2.537432143E0,-7.989477599E-4,1.331579551E-4,1.464737463E-3
2.539440007E0,2.663159103E-4,1.331579551E-4,2.530001104E-3
2.541447872E0,-1.864211401E-3,-1.997369342E-3,1.464737463E-3
2.543455789E0,-2.929474926E-3,1.331579551E-4,3.994738800E-4
2.545463236E0,2.663159103E-4,-1.997369342E-3,1.464737463E-3
2.547468809E0,2.396843163E-3,-9.321057005E-4,1.464737463E-3
2.549474486E0,1.331579522E-3,1.198421582E-3,1.464737463E-3
2.551472299E0,-1.864211401E-3,1.331579551E-4,3.994738800E-4
2.553470684E0,-7.989477599E-4,1.331579551E-4,3.994738800E-4
2.555469903E0,-1.864211401E-3,1.331579551E-4,3.994738800E-4
2.557470216E0,-1.864211401E-3,1.331579551E-4,3.994738800E-4
2.559471778E0,-7.989477599E-4,1.331579551E-4,-6.657897611E-4
2.561474695E0,-1.864211401E-3,-1.997369342E-3,2.530001104E-3
2.563479018E0,-7.989477599E-4,1.331579551E-4,3.994738800E-4
2.565484747E0,2.663159103E-4,-9.321057005E-4,1.464737463E-3
2.567491830E0,-1.864211401E-3,1.331579551E-4,2.530001104E-3
2.569500111E0,-2.929474926E-3,-9.321057005E-4,3.994738800E-4
2.571509434E0,-7.989477599E-4,1.331579551E-4,3.994738800E-4
2.573519643E0,-7.989477599E-4,1.331579551E-4,3.994738800E-4
2.575530476E0,-7.989477599E-4,1.331579551E-4,2.530001104E-3
2.577541726E0,-7.989477599E-4,1.331579551E-4,1.464737463E-3
2.579553132E0,-7.989477599E-4,-9.321057005E-4,2.530001104E-3
2.581563184E0,-7.989477599E-4,1.198421582E-3,1.464737463E-3
2.583568705E0,1.331579522E-3,2.263685223E-3,1.464737463E-3
2.585579643E0,1.331579522E-3,2.263685223E-3,2.530001104E-3
2.587579799E0,-7.989477599E-4,1.331579551E-4,1.464737463E-3
2.589580164E0,2.663159103E-4,1.331579551E-4,3.994738800E-4
2.591580893E0,-1.864211401E-3,2.263685223E-3,1.464737463E-3
2.593582195E0,2.663159103E-4,2.263685223E-3,-6.657897611E-4
2.595584226E0,2.663159103E-4,2.263685223E-3,3.994738800E-4
2.597587091E0,2.663159103E-4,2.263685223E-3,3.994738800E-4
2.599590841E0,1.331579522E-3,3.328948980E-3,3.994738800E-4
2.601595528E0,1.331579522E-3,1.198421582E-3,3.994738800E-4
2.603601153E0,2.663159103E-4,2.263685223E-3,3.994738800E-4
2.605607664E0,2.663159103E-4,2.263685223E-3,-6.657897611E-4
2.607614174E0,-7.989477599E-4,1.198421582E-3,3.994738800E-4
2.609621466E0,-7.989477599E-4,1.331579551E-4,3.994738800E-4
2.611629434E0,2.663159103E-4,1.198421582E-3,3.994738800E-4
2.613637976E0,1.331579522E-3,1.198421582E-3,3.994738800E-4
2.615646934E0,1.331579522E-3,2.263685223E-3,-6.657897611E-4
2.617656153E0,2.663159103E-4,2.263685223E-3,3.994738800E-4
2.619665476E0,-7.989477599E-4,2.263685223E-3,1.464737463E-3
2.621674174E0,-7.989477599E-4,2.263685223E-3,3.994738800E-4
2.623679747E0,-7.989477599E-4,2.263685223E-3,3.994738800E-4
2.625685268E0,-1.864211401E-3,2.263685223E-3,2.530001104E-3
2.627688080E0,2.663159103E-4,5.459476262E-3,-6.657897611E-4
2.629691101E0,2.663159103E-4,3.328948980E-3,1.464737463E-3
2.631694434E0,-7.989477599E-4,2.263685223E-3,1.464737463E-3
2.633698132E0,-2.929474926E-3,2.263685223E-3,1.464737463E-3
2.635702247E0,-7.989477599E-4,3.328948980E-3,1.464737463E-3
2.637706830E0,-2.929474926E-3,3.328948980E-3,1.464737463E-3
2.639711882E0,-7.989477599E-4,3.328948980E-3,1.464737463E-3
2.641717403E0,-2.929474926E-3,2.263685223E-3,3.595264861E-3
2.643723393E0,-1.864211401E-3,3.328948980E-3,2.530001104E-3
2.645729382E0,-2.929474926E-3,4.394212738E-3,1.464737463E-3
2.647735789E0,-3.994738683E-3,4.394212738E-3,1.464737463E-3
2.649742559E0,-2.929474926E-3,3.328948980E-3,3.994738800E-4
2.651749643E0,-2.929474926E-3,5.459476262E-3,3.994738800E-4
2.653756934E0,-7.989477599E-4,4.394212738E-3,-6.657897611E-4
2.655764382E0,-1.864211401E-3,4.394212738E-3,1.464737463E-3
2.657771882E0,-2.929474926E-3,5.459476262E-3,1.464737463E-3
2.659784799E0,-1.864211401E-3,4.394212738E-3,1.464737463E-3
2.661785164E0,-2.929474926E-3,4.394212738E-3,1.464737463E-3
2.663785736E0,2.663159103E-4,6.524739787E-3,3.994738800E-4
2.665786674E0,-2.929474926E-3,6.524739787E-3,3.994738800E-4
2.667788132E0,-6.125265732E-3,5.459476262E-3,1.464737463E-3
2.669790268E0,-5.060002208E-3,4.394212738E-3,2.530001104E-3
2.671793184E0,-2.929474926E-3,6.524739787E-3,1.464737463E-3
2.673796986E0,-2.929474926E-3,5.459476262E-3,1.464737463E-3
2.675801674E0,-6.125265732E-3,7.590003312E-3,3.994738800E-4
2.677807247E0,-5.060002208E-3,8.655266836E-3,1.464737463E-3
2.679813705E0,-6.125265732E-3,7.590003312E-3,1.464737463E-3
2.681824851E0,-2.929474926E-3,6.524739787E-3,1.464737463E-3
2.683835997E0,-5.060002208E-3,8.655266836E-3,3.994738800E-4
2.685847299E0,-3.994738683E-3,7.590003312E-3,1.464737463E-3
2.687857351E0,-2.929474926E-3,8.655266836E-3,1.464737463E-3
2.689862924E0,-2.929474926E-3,7.590003312E-3,-6.657897611E-4
2.691868445E0,1.331579522E-3,5.459476262E-3,3.994738800E-4
2.693871257E0,1.331579522E-3,6.524739787E-3,-6.657897611E-4
2.695874278E0,2.663159103E-4,1.078579482E-2,-6.657897611E-4
2.697877611E0,-2.929474926E-3,9.720530361E-3,1.464737463E-3
2.699881309E0,-1.864211401E-3,7.590003312E-3,1.464737463E-3
2.701885424E0,-5.060002208E-3,1.198421582E-3,-6.657897611E-4
2.703890007E0,-6.125265732E-3,1.198421582E-3,1.464737463E-3
2.705895059E0,-1.864211401E-3,6.524739787E-3,1.464737463E-3
2.707900580E0,-2.929474926E-3,1.291632187E-2,2.530001104E-3
2.709906570E0,-2.929474926E-3,1.398158539E-2,1.464737463E-3
2.711912976E0,-3.994738683E-3,1.078579482E-2,2.530001104E-3
2.713919747E0,-3.994738683E-3,5.459476262E-3,3.595264861E-3
2.715926830E0,-1.864211401E-3,5.459476262E-3,3.595264861E-3
2.717934174E0,-1.864211401E-3,7.590003312E-3,2.530001104E-3
2.719942507E0,-3.994738683E-3,8.655266836E-3,2.530001104E-3
2.721950841E0,-3.994738683E-3,4.394212738E-3,1.464737463E-3
2.723957247E0,-5.060002208E-3,1.331579551E-4,1.464737463E-3
2.725962820E0,-7.989477599E-4,4.394212738E-3,1.464737463E-3
2.727973809E0,3.462106921E-3,8.655266836E-3,3.994738800E-4
2.729978080E0,-2.929474926E-3,9.720530361E-3,1.464737463E-3
2.731971882E0,-3.994738683E-3,4.394212738E-3,1.464737463E-3
2.733966414E0,1.331579522E-3,2.263685223E-3,2.530001104E-3
2.735962091E0,1.331579522E-3,3.328948980E-3,1.464737463E-3
2.737959278E0,-3.994738683E-3,8.655266836E-3,-6.657897611E-4
2.739958236E0,-3.994738683E-3,9.720530361E-3,3.994738800E-4
2.741959174E0,-5.060002208E-3,5.459476262E-3,3.994738800E-4
2.743962195E0,-2.929474926E-3,1.198421582E-3,1.464737463E-3
2.745967299E0,-3.994738683E-3,1.198421582E-3,2.530001104E-3
2.747974434E0,-2.929474926E-3,6.524739787E-3,3.994738800E-4
2.749983445E0,-1.864211401E-3,9.720530361E-3,1.464737463E-3
2.751994122E0,-5.060002208E-3,8.655266836E-3,1.464737463E-3
2.754006205E0,-6.125265732E-3,4.394212738E-3,2.530001104E-3
2.756019382E0,-1.864211401E-3,2.263685223E-3,3.595264861E-3
2.758033289E0,-2.929474926E-3,3.328948980E-3,2.530001104E-3
2.760047559E0,-1.864211401E-3,7.590003312E-3,2.530001104E-3
2.762059122E0,-7.989477599E-4,8.655266836E-3,1.464737463E-3
2.764068289E0,-1.864211401E-3,5.459476262E-3,2.530001104E-3
2.766073809E0,-3.994738683E-3,3.328948980E-3,1.464737463E-3
2.768084747E0,-2.929474926E-3,3.328948980E-3,2.530001104E-3
2.770084955E0,-5.060002208E-3,2.263685223E-3,3.994738800E-4
2.772085372E0,-3.994738683E-3,3.328948980E-3,3.994738800E-4
2.774086153E0,-1.864211401E-3,5.459476262E-3,3.994738800E-4
2.776087507E0,-1.864211401E-3,4.394212738E-3,-6.657897611E-4
2.778089591E0,-7.989477599E-4,3.328948980E-3,3.994738800E-4
2.780092507E0,-1.864211401E-3,3.328948980E-3,1.464737463E-3
2.782096309E0,-1.864211401E-3,6.524739787E-3,2.530001104E-3
2.784101049E0,2.663159103E-4,6.524739787E-3,3.994738800E-4
2.786106726E0,2.663159103E-4,2.263685223E-3,-1.731053460E-3
2.788112403E0,-2.929474926E-3,2.263685223E-3,-6.657897611E-4
2.790118966E0,-7.989477599E-4,2.263685223E-3,-6.657897611E-4
2.792126309E0,-7.989477599E-4,2.263685223E-3,3.994738800E-4
2.794134330E0,2.663159103E-4,4.394212738E-3,1.464737463E-3
2.796143757E0,2.663159103E-4,2.263685223E-3,3.994738800E-4
2.798155736E0,-7.989477599E-4,1.198421582E-3,-6.657897611E-4
2.800165007E0,2.663159103E-4,1.198421582E-3,3.994738800E-4
2.802173757E0,-7.989477599E-4,1.331579551E-4,3.994738800E-4
2.804179330E0,-7.989477599E-4,3.328948980E-3,1.464737463E-3
2.806184851E0,1.331579522E-3,4.394212738E-3,3.994738800E-4
2.808195789E0,-7.989477599E-4,1.198421582E-3,1.464737463E-3
2.810195945E0,2.396843163E-3,2.263685223E-3,1.464737463E-3
2.812196309E0,2.663159103E-4,1.331579551E-4,-6.657897611E-4
2.814197039E0,-7.989477599E-4,1.198421582E-3,-1.731053460E-3
2.816198341E0,2.663159103E-4,1.331579551E-4,3.994738800E-4
2.818200372E0,2.396843163E-3,1.331579551E-4,-6.657897611E-4
2.820203236E0,3.462106921E-3,-1.997369342E-3,-6.657897611E-4
2.822206986E0,1.331579522E-3,1.331579551E-4,-6.657897611E-4
2.824211674E0,1.331579522E-3,1.198421582E-3,3.994738800E-4
2.826216361E0,2.396843163E-3,-4.127896391E-3,-6.657897611E-4
2.828222039E0,1.331579522E-3,-5.193160381E-3,-6.657897611E-4
2.830228653E0,2.396843163E-3,-3.062632866E-3,3.994738800E-4
2.832236101E0,2.396843163E-3,-3.062632866E-3,-1.731053460E-3
2.834244278E0,2.663159103E-4,-1.997369342E-3,-1.731053460E-3
2.836253080E0,2.663159103E-4,-5.193160381E-3,3.994738800E-4
2.838262351E0,-7.989477599E-4,-6.258423906E-3,-6.657897611E-4
2.840271882E0,2.663159103E-4,-5.193160381E-3,-1.731053460E-3
2.842281518E0,1.331579522E-3,-3.062632866E-3,-6.657897611E-4
2.844290320E0,2.663159103E-4,-4.127896391E-3,-6.657897611E-4
2.846295893E0,2.663159103E-4,-6.258423906E-3,3.994738800E-4
2.848301414E0,2.663159103E-4,-5.193160381E-3,3.994738800E-4
2.850304226E0,-1.864211401E-3,-6.258423906E-3,3.994738800E-4
2.852307247E0,1.331579522E-3,-6.258423906E-3,3.994738800E-4
2.854310580E0,2.663159103E-4,-3.062632866E-3,1.464737463E-3
2.856314278E0,2.396843163E-3,-5.193160381E-3,3.994738800E-4
2.858318393E0,1.331579522E-3,-7.323687430E-3,1.464737463E-3
2.860322976E0,2.396843163E-3,-5.193160381E-3,1.464737463E-3
2.862330736E0,1.331579522E-3,-5.193160381E-3,-6.657897611E-4
2.864338497E0,5.592633970E-3,-5.193160381E-3,1.464737463E-3
2.866346414E0,1.331579522E-3,-7.323687430E-3,1.464737463E-3
2.868354434E0,3.462106921E-3,-7.323687430E-3,-1.731053460E-3
2.870367872E0,1.331579522E-3,-6.258423906E-3,3.994738800E-4
2.872368028E0,2.396843163E-3,-6.258423906E-3,-6.657897611E-4
2.874368393E0,1.331579522E-3,-6.258423906E-3,-1.731053460E-3
2.876369174E0,1.331579522E-3,-6.258423906E-3,-6.657897611E-4
2.878370528E0,1.331579522E-3,-6.258423906E-3,-6.657897611E-4
2.880372611E0,2.396843163E-3,-5.193160381E-3,-6.657897611E-4
2.882375528E0,1.331579522E-3,-7.323687430E-3,-6.657897611E-4
2.884379330E0,2.396843163E-3,-9.454214945E-3,3.994738800E-4
2.886384070E0,3.462106921E-3,-7.323687430E-3,-6.657897611E-4
2.888389747E0,3.462106921E-3,-8.388951421E-3,-6.657897611E-4
2.890396309E0,4.527370445E-3,-8.388951421E-3,3.994738800E-4
2.892403653E0,3.462106921E-3,-7.323687430E-3,3.994738800E-4
2.894411674E0,3.462106921E-3,-7.323687430E-3,-6.657897611E-4
2.896420268E0,3.462106921E-3,-4.127896391E-3,3.994738800E-4
2.898429278E0,3.462106921E-3,-6.258423906E-3,3.994738800E-4
2.900439434E0,3.462106921E-3,-7.323687430E-3,3.994738800E-4
2.902449591E0,2.396843163E-3,-9.454214945E-3,3.994738800E-4
2.904456882E0,1.331579522E-3,-9.454214945E-3,-6.657897611E-4
2.906462403E0,2.663159103E-4,-1.051947847E-2,3.994738800E-4
2.908465216E0,3.462106921E-3,-8.388951421E-3,-6.657897611E-4
2.910468236E0,4.527370445E-3,-5.193160381E-3,3.994738800E-4
2.912471570E0,5.592633970E-3,-4.127896391E-3,-6.657897611E-4
2.914475268E0,6.657897960E-3,-5.193160381E-3,3.994738800E-4
2.916479382E0,6.657897960E-3,-6.258423906E-3,-1.731053460E-3
2.918483966E0,5.592633970E-3,-6.258423906E-3,-6.657897611E-4
2.920489018E0,2.396843163E-3,-5.193160381E-3,-6.657897611E-4
2.922494539E0,2.396843163E-3,-7.323687430E-3,-6.657897611E-4
2.924500528E0,1.331579522E-3,-1.158474199E-2,-1.731053460E-3
2.926506934E0,3.462106921E-3,-1.158474199E-2,-6.657897611E-4
2.928513705E0,6.657897960E-3,-5.193160381E-3,-1.731053460E-3
2.930520789E0,4.527370445E-3,-3.062632866E-3,-6.657897611E-4
2.932528132E0,2.396843163E-3,-1.997369342E-3,-1.731053460E-3
2.934535632E0,3.462106921E-3,-3.062632866E-3,-1.731053460E-3
2.936543184E0,2.396843163E-3,-9.454214945E-3,-6.657897611E-4
2.938556153E0,2.396843163E-3,-9.454214945E-3,-6.657897611E-4
2.940556778E0,3.462106921E-3,-9.454214945E-3,1.464737463E-3
2.942557559E0,4.527370445E-3,-7.323687430E-3,-6.657897611E-4
2.944558705E0,5.592633970E-3,-3.062632866E-3,-6.657897611E-4
2.946560372E0,4.527370445E-3,-1.997369342E-3,3.994738800E-4
2.948562716E0,2.396843163E-3,-4.127896391E-3,3.994738800E-4
2.950565789E0,3.462106921E-3,-5.193160381E-3,3.994738800E-4
2.952569695E0,3.462106921E-3,-8.388951421E-3,-6.657897611E-4
2.954574434E0,3.462106921E-3,-7.323687430E-3,-6.657897611E-4
2.956580007E0,2.396843163E-3,-8.388951421E-3,1.464737463E-3
2.958586414E0,3.462106921E-3,-5.193160381E-3,3.994738800E-4
2.960593549E0,2.396843163E-3,-4.127896391E-3,3.994738800E-4
2.962601361E0,4.527370445E-3,-3.062632866E-3,-6.657897611E-4
2.964609695E0,3.462106921E-3,-4.127896391E-3,-6.657897611E-4
2.966618445E0,1.331579522E-3,-5.193160381E-3,3.994738800E-4
2.968627195E0,1.331579522E-3,-5.193160381E-3,-6.657897611E-4
2.970636101E0,1.331579522E-3,-7.323687430E-3,-6.657897611E-4
2.972642299E0,1.331579522E-3,-4.127896391E-3,-1.731053460E-3
2.974648601E0,1.331579522E-3,-4.127896391E-3,3.994738800E-4
2.976654955E0,2.396843163E-3,-4.127896391E-3,-6.657897611E-4
2.978666726E0,1.331579522E-3,-1.997369342E-3,-6.657897611E-4
2.980667820E0,2.396843163E-3,-3.062632866E-3,3.994738800E-4
2.982669070E0,1.331579522E-3,-4.127896391E-3,1.464737463E-3
2.984670632E0,2.396843163E-3,-4.127896391E-3,3.994738800E-4
2.986672664E0,1.331579522E-3,-5.193160381E-3,1.464737463E-3
2.988675268E0,1.331579522E-3,-4.127896391E-3,3.994738800E-4
2.990678549E0,1.331579522E-3,-4.127896391E-3,3.994738800E-4
2.992682559E0,1.331579522E-3,-9.321057005E-4,-1.731053460E-3
2.994687351E0,-7.989477599E-4,-9.321057005E-4,-6.657897611E-4
2.996692924E0,2.396843163E-3,-9.321057005E-4,1.464737463E-3
2.998699226E0,1.331579522E-3,-1.997369342E-3,1.464737463E-3
3.000706205E0,-7.989477599E-4,-1.997369342E-3,1.464737463E-3
3.002713809E0,-7.989477599E-4,-1.997369342E-3,3.994738800E-4
3.004721934E0,-7.989477599E-4,-1.997369342E-3,3.994738800E-4
3.006730059E0,-7.989477599E-4,1.331579551E-4,1.464737463E-3
3.008738445E0,-1.864211401E-3,1.198421582E-3,2.530001104E-3
3.010746986E0,-1.864211401E-3,1.331579551E-4,3.595264861E-3
3.012752820E0,-1.864211401E-3,2.263685223E-3,1.464737463E-3
3.014759018E0,-1.864211401E-3,1.198421582E-3,2.530001104E-3
3.016765893E0,-7.989477599E-4,2.263685223E-3,3.994738800E-4
3.018778184E0,2.663159103E-4,3.328948980E-3,3.994738800E-4
3.020778861E0,2.663159103E-4,5.459476262E-3,1.464737463E-3
3.022779695E0,2.663159103E-4,4.394212738E-3,2.530001104E-3
3.024780893E0,-1.864211401E-3,3.328948980E-3,1.464737463E-3
3.026782611E0,-3.994738683E-3,2.263685223E-3,1.464737463E-3
3.028784955E0,-2.929474926E-3,1.331579551E-4,1.464737463E-3
3.030788028E0,-2.929474926E-3,2.263685223E-3,-6.657897611E-4
3.032791934E0,-2.929474926E-3,6.524739787E-3,3.994738800E-4
3.034796674E0,-3.994738683E-3,5.459476262E-3,-6.657897611E-4
3.036802247E0,2.663159103E-4,4.394212738E-3,-6.657897611E-4
3.038808653E0,3.462106921E-3,6.524739787E-3,3.994738800E-4
3.040815789E0,1.331579522E-3,9.720530361E-3,-6.657897611E-4
3.042827507E0,-1.864211401E-3,1.078579482E-2,-6.657897611E-4
3.044839226E0,-1.864211401E-3,6.524739787E-3,-6.657897611E-4
3.046848236E0,-2.929474926E-3,1.198421582E-3,-6.657897611E-4
3.048856622E0,-2.929474926E-3,-9.321057005E-4,1.464737463E-3
3.050862143E0,2.663159103E-4,4.394212738E-3,3.994738800E-4
3.052868497E0,2.663159103E-4,9.720530361E-3,3.994738800E-4
3.054865684E0,2.663159103E-4,1.185105834E-2,-1.731053460E-3
3.056863497E0,2.663159103E-4,8.655266836E-3,-2.796316985E-3
3.058862195E0,-7.989477599E-4,4.394212738E-3,-6.657897611E-4
3.060862039E0,-1.864211401E-3,-9.321057005E-4,-6.657897611E-4
3.062863184E0,-1.864211401E-3,-9.321057005E-4,-6.657897611E-4
3.064865789E0,-7.989477599E-4,2.263685223E-3,-6.657897611E-4
3.066869903E0,2.663159103E-4,5.459476262E-3,3.994738800E-4
3.068875528E0,2.663159103E-4,6.524739787E-3,-6.657897611E-4
3.070882611E0,2.396843163E-3,6.524739787E-3,-6.657897611E-4
3.072890997E0,2.663159103E-4,3.328948980E-3,-6.657897611E-4
3.074900528E0,2.663159103E-4,1.198421582E-3,3.994738800E-4
3.076910997E0,2.663159103E-4,1.331579551E-4,-6.657897611E-4
3.078922195E0,2.663159103E-4,1.331579551E-4,-6.657897611E-4
3.080934747E0,1.331579522E-3,1.198421582E-3,-1.731053460E-3
3.082947299E0,1.331579522E-3,-9.321057005E-4,3.994738800E-4
3.084956518E0,2.396843163E-3,1.331579551E-4,1.464737463E-3
3.086962091E0,3.462106921E-3,1.331579551E-4,3.994738800E-4
3.088973080E0,3.462106921E-3,1.198421582E-3,-2.796316985E-3
3.090973184E0,1.331579522E-3,-3.062632866E-3,-1.731053460E-3
3.092973497E0,2.396843163E-3,-3.062632866E-3,-1.731053460E-3
3.094974226E0,2.663159103E-4,-4.127896391E-3,-6.657897611E-4
3.096975528E0,1.331579522E-3,-3.062632866E-3,3.994738800E-4
3.098977559E0,2.396843163E-3,-3.062632866E-3,-1.731053460E-3
3.100980424E0,3.462106921E-3,-3.062632866E-3,-1.731053460E-3
3.102984174E0,2.396843163E-3,-4.127896391E-3,3.994738800E-4
3.104988861E0,1.331579522E-3,-4.127896391E-3,3.994738800E-4
3.106994486E0,2.396843163E-3,-7.323687430E-3,1.464737463E-3
3.109000997E0,2.396843163E-3,-8.388951421E-3,1.464737463E-3
3.111008341E0,2.396843163E-3,-6.258423906E-3,1.464737463E-3
3.113016414E0,4.527370445E-3,-8.388951421E-3,1.464737463E-3
3.115025059E0,3.462106921E-3,-6.258423906E-3,3.994738800E-4
3.117034122E0,1.331579522E-3,-7.323687430E-3,1.464737463E-3
3.119043445E0,1.331579522E-3,-6.258423906E-3,3.994738800E-4
3.121052872E0,1.331579522E-3,-7.323687430E-3,3.994738800E-4
3.123062039E0,4.527370445E-3,-6.258423906E-3,3.994738800E-4
3.125067559E0,1.331579522E-3,-8.388951421E-3,-6.657897611E-4
3.127070372E0,1.331579522E-3,-8.388951421E-3,-6.657897611E-4
3.129073393E0,2.396843163E-3,-7.323687430E-3,-6.657897611E-4
3.131076726E0,3.462106921E-3,-8.388951421E-3,1.464737463E-3
3.133080424E0,2.396843163E-3,-8.388951421E-3,1.464737463E-3
3.135084539E0,2.396843163E-3,-8.388951421E-3,-2.796316985E-3
3.137089122E0,2.396843163E-3,-7.323687430E-3,-1.731053460E-3
3.139094174E0,2.396843163E-3,-9.454214945E-3,-6.657897611E-4
3.141099695E0,5.592633970E-3,-9.454214945E-3,-6.657897611E-4
3.143105684E0,6.657897960E-3,-9.454214945E-3,3.994738800E-4
3.145112091E0,3.462106921E-3,-8.388951421E-3,-6.657897611E-4
3.147118861E0,4.527370445E-3,-9.454214945E-3,-1.731053460E-3
3.149125632E0,4.527370445E-3,-8.388951421E-3,-6.657897611E-4
3.151132664E0,4.527370445E-3,-9.454214945E-3,-6.657897611E-4
3.153139903E0,5.592633970E-3,-8.388951421E-3,-6.657897611E-4
3.155147247E0,4.527370445E-3,-9.454214945E-3,-6.657897611E-4
3.157155528E0,2.396843163E-3,-8.388951421E-3,-6.657897611E-4
3.159166049E0,3.462106921E-3,-9.454214945E-3,3.994738800E-4
3.161167507E0,4.527370445E-3,-1.051947847E-2,3.994738800E-4
3.163169122E0,3.462106921E-3,-8.388951421E-3,-6.657897611E-4
3.165171049E0,1.331579522E-3,-8.388951421E-3,3.994738800E-4
3.167173393E0,4.527370445E-3,-9.454214945E-3,3.994738800E-4
3.169176257E0,2.396843163E-3,-9.454214945E-3,3.994738800E-4
3.171179747E0,2.663159103E-4,-9.454214945E-3,3.994738800E-4
3.173183914E0,3.462106921E-3,-8.388951421E-3,-6.657897611E-4
3.175188809E0,3.462106921E-3,-6.258423906E-3,1.464737463E-3
3.177194434E0,2.396843163E-3,-5.193160381E-3,3.994738800E-4
3.179200736E0,1.331579522E-3,-6.258423906E-3,3.994738800E-4
3.181207664E0,2.663159103E-4,-9.454214945E-3,1.464737463E-3
3.183215111E0,-1.864211401E-3,-1.051947847E-2,1.464737463E-3
3.185222976E0,2.663159103E-4,-8.388951421E-3,1.464737463E-3
3.187230841E0,1.331579522E-3,-1.997369342E-3,1.464737463E-3
3.189238966E0,4.527370445E-3,1.331579551E-4,1.464737463E-3
3.191247195E0,3.462106921E-3,1.331579551E-4,3.994738800E-4
3.193260841E0,1.331579522E-3,-4.127896391E-3,3.994738800E-4
3.195268184E0,2.396843163E-3,-5.193160381E-3,1.464737463E-3
3.197276726E0,2.663159103E-4,-9.321057005E-4,3.994738800E-4
3.199273028E0,-2.929474926E-3,1.331579551E-4,3.994738800E-4
3.201269695E0,-1.864211401E-3,-4.127896391E-3,-1.731053460E-3
3.203267039E0,2.663159103E-4,-6.258423906E-3,-6.657897611E-4
3.205265372E0,3.462106921E-3,-4.127896391E-3,3.595264861E-3
3.207264955E0,2.396843163E-3,1.331579551E-4,-6.657897611E-4
3.209265945E0,1.331579522E-3,5.459476262E-3,-6.657897611E-4
3.211268497E0,2.663159103E-4,5.459476262E-3,-6.657897611E-4
3.213272664E0,-7.989477599E-4,-9.321057005E-4,-6.657897611E-4
3.215278445E0,-7.989477599E-4,-3.062632866E-3,3.994738800E-4
3.217285736E0,-1.864211401E-3,-9.321057005E-4,-6.657897611E-4
3.219294434E0,-1.864211401E-3,2.263685223E-3,-1.731053460E-3
3.221304330E0,2.663159103E-4,4.394212738E-3,-6.657897611E-4
3.223315216E0,2.396843163E-3,5.459476262E-3,-6.657897611E-4
3.225326830E0,1.331579522E-3,5.459476262E-3,-6.657897611E-4
3.227338914E0,-7.989477599E-4,5.459476262E-3,-6.657897611E-4
3.229351205E0,-2.929474926E-3,4.394212738E-3,1.464737463E-3
3.231361830E0,-5.060002208E-3,3.328948980E-3,3.994738800E-4
3.233373080E0,-1.864211401E-3,1.331579551E-4,3.994738800E-4
3.235365372E0,-2.929474926E-3,2.263685223E-3,3.994738800E-4
3.237358497E0,-7.989477599E-4,5.459476262E-3,3.994738800E-4
3.239352872E0,-1.864211401E-3,5.459476262E-3,3.994738800E-4
3.241348914E0,2.663159103E-4,5.459476262E-3,1.464737463E-3
3.243346934E0,-7.989477599E-4,5.459476262E-3,3.994738800E-4
3.245347143E0,-2.929474926E-3,4.394212738E-3,-6.657897611E-4
3.247349695E0,-2.929474926E-3,3.328948980E-3,3.994738800E-4
3.249354591E0,-2.929474926E-3,6.524739787E-3,3.994738800E-4
3.251361778E0,-7.989477599E-4,7.590003312E-3,3.994738800E-4
3.253371101E0,-2.929474926E-3,6.524739787E-3,1.464737463E-3
3.255382299E0,-1.864211401E-3,6.524739787E-3,3.994738800E-4
3.257395111E0,-7.989477599E-4,7.590003312E-3,3.994738800E-4
3.259409174E0,2.663159103E-4,7.590003312E-3,3.994738800E-4
3.261425007E0,-7.989477599E-4,6.524739787E-3,3.994738800E-4
3.263440841E0,-7.989477599E-4,7.590003312E-3,1.464737463E-3
3.265456257E0,-3.994738683E-3,6.524739787E-3,3.994738800E-4
3.267461778E0,-3.994738683E-3,5.459476262E-3,3.994738800E-4
3.269464591E0,-3.994738683E-3,4.394212738E-3,3.994738800E-4
3.271467611E0,-1.864211401E-3,4.394212738E-3,3.994738800E-4
3.273470945E0,-7.989477599E-4,5.459476262E-3,2.530001104E-3
3.275474643E0,-2.929474926E-3,6.524739787E-3,3.994738800E-4
3.277478757E0,-2.929474926E-3,6.524739787E-3,3.994738800E-4
3.279483341E0,-7.989477599E-4,4.394212738E-3,1.464737463E-3
3.281488393E0,-2.929474926E-3,5.459476262E-3,2.530001104E-3
3.283493914E0,-2.929474926E-3,4.394212738E-3,1.464737463E-3
3.285499903E0,-2.929474926E-3,4.394212738E-3,3.994738800E-4
3.287506309E0,-1.864211401E-3,3.328948980E-3,1.464737463E-3
3.289513080E0,-2.929474926E-3,4.394212738E-3,2.530001104E-3
3.291520164E0,-1.864211401E-3,4.394212738E-3,3.595264861E-3
3.293527507E0,2.663159103E-4,4.394212738E-3,1.464737463E-3
3.295535007E0,-7.989477599E-4,3.328948980E-3,1.464737463E-3
3.297542559E0,-7.989477599E-4,5.459476262E-3,1.464737463E-3
3.299555528E0,-7.989477599E-4,4.394212738E-3,2.530001104E-3
3.301556153E0,-7.989477599E-4,4.394212738E-3,3.994738800E-4
3.303556934E0,-1.864211401E-3,5.459476262E-3,3.994738800E-4
3.305558080E0,-1.864211401E-3,4.394212738E-3,3.994738800E-4
3.307559747E0,-7.989477599E-4,1.198421582E-3,3.994738800E-4
3.309562091E0,-3.994738683E-3,1.198421582E-3,1.464737463E-3
3.311565164E0,-1.864211401E-3,1.198421582E-3,3.994738800E-4
3.313569070E0,-1.864211401E-3,1.331579551E-4,1.464737463E-3
3.315573809E0,-7.989477599E-4,1.331579551E-4,3.994738800E-4
3.317579382E0,-7.989477599E-4,3.328948980E-3,3.994738800E-4
3.319585789E0,-7.989477599E-4,2.263685223E-3,1.464737463E-3
3.321592976E0,1.331579522E-3,1.331579551E-4,3.994738800E-4
3.323600841E0,2.663159103E-4,1.331579551E-4,1.464737463E-3
3.325609226E0,-7.989477599E-4,2.263685223E-3,3.994738800E-4
3.327618028E0,-7.989477599E-4,1.198421582E-3,3.994738800E-4
3.329626830E0,-7.989477599E-4,2.263685223E-3,3.994738800E-4
3.331635736E0,-7.989477599E-4,1.198421582E-3,1.464737463E-3
3.333641934E0,1.331579522E-3,1.331579551E-4,-6.657897611E-4
3.335648184E0,1.331579522E-3,2.263685223E-3,3.994738800E-4
3.337654486E0,-7.989477599E-4,2.263685223E-3,1.464737463E-3
3.339666205E0,2.663159103E-4,1.331579551E-4,3.994738800E-4
3.341667247E0,2.396843163E-3,-9.321057005E-4,-1.731053460E-3
3.343668445E0,2.396843163E-3,1.331579551E-4,-6.657897611E-4
3.345669955E0,1.331579522E-3,1.198421582E-3,3.994738800E-4
3.347671934E0,2.663159103E-4,-9.321057005E-4,-6.657897611E-4
3.349674486E0,2.663159103E-4,-9.321057005E-4,-1.731053460E-3
3.351677716E0,2.396843163E-3,1.331579551E-4,3.994738800E-4
3.353681726E0,1.331579522E-3,-9.321057005E-4,3.994738800E-4
3.355686518E0,2.396843163E-3,-1.997369342E-3,3.994738800E-4
3.357692091E0,1.331579522E-3,-1.997369342E-3,1.464737463E-3
3.359698445E0,2.396843163E-3,-4.127896391E-3,1.464737463E-3
3.361705476E0,2.396843163E-3,-4.127896391E-3,3.994738800E-4
3.363713132E0,1.331579522E-3,-1.997369342E-3,1.464737463E-3
3.365721309E0,2.396843163E-3,-9.321057005E-4,3.994738800E-4
3.367729486E0,2.663159103E-4,-3.062632866E-3,3.994738800E-4
3.369737924E0,3.462106921E-3,-4.127896391E-3,3.994738800E-4
3.371746518E0,2.396843163E-3,-5.193160381E-3,3.994738800E-4
3.373752403E0,1.331579522E-3,-4.127896391E-3,1.464737463E-3
3.375758653E0,2.663159103E-4,-4.127896391E-3,-6.657897611E-4
3.377766726E0,1.331579522E-3,-4.127896391E-3,2.530001104E-3
3.379772716E0,2.396843163E-3,-4.127896391E-3,-6.657897611E-4
3.381778289E0,2.396843163E-3,-3.062632866E-3,1.464737463E-3
3.383783809E0,2.663159103E-4,-4.127896391E-3,3.994738800E-4
3.385794747E0,2.396843163E-3,-9.321057005E-4,3.994738800E-4
3.387794955E0,2.396843163E-3,-4.127896391E-3,1.464737463E-3
3.389795372E0,1.331579522E-3,-4.127896391E-3,1.464737463E-3
3.391796153E0,2.396843163E-3,-5.193160381E-3,3.994738800E-4
3.393797507E0,2.396843163E-3,-4.127896391E-3,2.530001104E-3
3.395799591E0,-7.989477599E-4,-6.258423906E-3,1.464737463E-3
3.397802507E0,2.663159103E-4,-5.193160381E-3,3.994738800E-4
3.399806309E0,1.331579522E-3,-5.193160381E-3,3.994738800E-4
3.401811049E0,1.331579522E-3,-3.062632866E-3,3.994738800E-4
3.403820684E0,1.331579522E-3,-4.127896391E-3,2.530001104E-3
3.405830320E0,1.331579522E-3,-3.062632866E-3,3.994738800E-4
3.407840372E0,2.396843163E-3,-3.062632866E-3,1.464737463E-3
3.409850632E0,2.396843163E-3,-3.062632866E-3,3.994738800E-4
3.411858184E0,2.396843163E-3,-5.193160381E-3,3.994738800E-4
3.413866622E0,2.663159103E-4,-4.127896391E-3,-6.657897611E-4
3.415865059E0,3.462106921E-3,-3.062632866E-3,-6.657897611E-4
3.417864070E0,4.527370445E-3,-1.997369342E-3,-6.657897611E-4
3.419863861E0,2.663159103E-4,-3.062632866E-3,-6.657897611E-4
3.421864643E0,1.331579522E-3,-3.062632866E-3,-6.657897611E-4
3.423866570E0,2.396843163E-3,-9.321057005E-4,-6.657897611E-4
3.425869747E0,2.663159103E-4,-9.321057005E-4,3.994738800E-4
3.427874226E0,1.331579522E-3,-1.997369342E-3,3.994738800E-4
3.429880007E0,1.331579522E-3,-1.997369342E-3,-6.657897611E-4
3.431887039E0,1.331579522E-3,-9.321057005E-4,3.994738800E-4
3.433895164E0,1.331579522E-3,-9.321057005E-4,1.464737463E-3
3.435904278E0,2.663159103E-4,1.331579551E-4,3.994738800E-4
3.437914174E0,1.331579522E-3,1.331579551E-4,-6.657897611E-4
3.439924643E0,2.663159103E-4,-9.321057005E-4,3.994738800E-4
3.441936414E0,2.663159103E-4,-9.321057005E-4,2.530001104E-3
3.443948184E0,1.331579522E-3,-1.997369342E-3,3.994738800E-4
3.445955945E0,2.663159103E-4,1.331579551E-4,1.464737463E-3
3.447961518E0,1.331579522E-3,1.331579551E-4,-6.657897611E-4
3.449972507E0,2.663159103E-4,1.331579551E-4,-6.657897611E-4
3.451972611E0,2.663159103E-4,1.331579551E-4,3.994738800E-4
3.453972924E0,2.663159103E-4,-9.321057005E-4,3.994738800E-4
3.455973653E0,2.663159103E-4,-9.321057005E-4,3.994738800E-4
3.457974955E0,2.663159103E-4,1.331579551E-4,3.994738800E-4
3.459976986E0,-7.989477599E-4,1.198421582E-3,3.994738800E-4
3.461979851E0,1.331579522E-3,2.263685223E-3,-6.657897611E-4
3.463983601E0,2.396843163E-3,1.198421582E-3,3.994738800E-4
3.465988289E0,2.663159103E-4,1.331579551E-4,-6.657897611E-4
3.467993914E0,2.663159103E-4,1.331579551E-4,1.464737463E-3
3.470000424E0,1.331579522E-3,1.331579551E-4,1.464737463E-3
3.472007768E0,2.663159103E-4,-9.321057005E-4,3.994738800E-4
3.474015841E0,2.663159103E-4,1.198421582E-3,-6.657897611E-4
3.476024486E0,-1.864211401E-3,1.331579551E-4,1.464737463E-3
3.478033549E0,2.663159103E-4,1.331579551E-4,1.464737463E-3
3.480043184E0,1.331579522E-3,1.331579551E-4,1.464737463E-3
3.482052820E0,1.331579522E-3,1.331579551E-4,1.464737463E-3
3.484061466E0,-7.989477599E-4,1.331579551E-4,2.530001104E-3
3.486067039E0,1.331579522E-3,1.331579551E-4,1.464737463E-3
3.488072559E0,2.396843163E-3,1.331579551E-4,2.530001104E-3
3.490075372E0,2.663159103E-4,1.331579551E-4,3.994738800E-4
3.492078393E0,1.331579522E-3,1.331579551E-4,-6.657897611E-4
3.494081726E0,1.331579522E-3,1.331579551E-4,1.464737463E-3
3.496085424E0,-7.989477599E-4,1.331579551E-4,3.994738800E-4
3.498089539E0,1.331579522E-3,-9.321057005E-4,2.530001104E-3
3.500094122E0,-7.989477599E-4,1.198421582E-3,3.994738800E-4
3.502099174E0,2.663159103E-4,1.331579551E-4,1.464737463E-3
3.504104695E0,2.663159103E-4,-9.321057005E-4,2.530001104E-3
3.506110684E0,-7.989477599E-4,1.331579551E-4,1.464737463E-3
3.508117091E0,1.331579522E-3,-1.997369342E-3,3.994738800E-4
3.510123497E0,2.663159103E-4,-9.321057005E-4,2.530001104E-3
3.512130268E0,2.663159103E-4,-9.321057005E-4,1.464737463E-3
3.514137299E0,1.331579522E-3,1.331579551E-4,1.464737463E-3
3.516144539E0,1.331579522E-3,1.331579551E-4,1.464737463E-3
3.518152820E0,-1.864211401E-3,-9.321057005E-4,1.464737463E-3
3.520161570E0,2.663159103E-4,1.331579551E-4,3.994738800E-4
3.522166986E0,1.331579522E-3,-9.321057005E-4,3.994738800E-4
3.524177820E0,2.663159103E-4,-9.321057005E-4,1.464737463E-3
3.526178080E0,1.331579522E-3,1.198421582E-3,2.530001104E-3
3.528178549E0,-7.989477599E-4,1.331579551E-4,3.994738800E-4
3.530179382E0,2.663159103E-4,1.331579551E-4,3.994738800E-4
3.532180789E0,1.331579522E-3,1.198421582E-3,2.530001104E-3
3.534182872E0,-7.989477599E-4,1.331579551E-4,3.595264861E-3
3.536185789E0,-2.929474926E-3,1.198421582E-3,2.530001104E-3
3.538189591E0,-7.989477599E-4,-1.997369342E-3,1.464737463E-3
3.540194330E0,2.663159103E-4,-9.321057005E-4,-6.657897611E-4
3.542200007E0,-7.989477599E-4,1.331579551E-4,3.994738800E-4
3.544206570E0,-7.989477599E-4,1.198421582E-3,3.994738800E-4
3.546213914E0,2.663159103E-4,1.198421582E-3,2.530001104E-3
3.548221934E0,1.331579522E-3,1.198421582E-3,3.994738800E-4
3.550230528E0,-1.864211401E-3,1.331579551E-4,1.464737463E-3
3.552239539E0,-2.929474926E-3,2.263685223E-3,-6.657897611E-4
3.554248809E0,2.663159103E-4,3.328948980E-3,1.464737463E-3
3.556258184E0,2.663159103E-4,2.263685223E-3,3.994738800E-4
3.558266934E0,2.663159103E-4,2.263685223E-3,3.994738800E-4
3.560272455E0,-7.989477599E-4,1.198421582E-3,1.464737463E-3
3.562275268E0,-1.864211401E-3,1.198421582E-3,1.464737463E-3
3.564278289E0,-7.989477599E-4,-9.321057005E-4,1.464737463E-3
3.566281622E0,2.663159103E-4,1.198421582E-3,1.464737463E-3
3.568285320E0,-7.989477599E-4,4.394212738E-3,3.994738800E-4
3.570289434E0,-7.989477599E-4,4.394212738E-3,3.994738800E-4
3.572294018E0,-7.989477599E-4,2.263685223E-3,-6.657897611E-4
3.574299070E0,2.663159103E-4,1.198421582E-3,-6.657897611E-4
3.576304591E0,-7.989477599E-4,3.328948980E-3,1.464737463E-3
3.578310580E0,-7.989477599E-4,1.331579551E-4,2.530001104E-3
3.580316986E0,-7.989477599E-4,1.198421582E-3,3.994738800E-4
3.582323757E0,2.663159103E-4,3.328948980E-3,-6.657897611E-4
3.584334851E0,2.663159103E-4,2.263685223E-3,3.994738800E-4
3.586345945E0,-1.864211401E-3,3.328948980E-3,-6.657897611E-4
3.588350216E0,2.396843163E-3,3.328948980E-3,1.464737463E-3
3.590359903E0,2.663159103E-4,2.263685223E-3,1.464737463E-3
3.592361309E0,2.663159103E-4,1.198421582E-3,1.464737463E-3
3.594362872E0,1.331579522E-3,2.263685223E-3,1.464737463E-3
3.596364747E0,2.663159103E-4,4.394212738E-3,1.464737463E-3
3.598367039E0,-7.989477599E-4,2.263685223E-3,-6.657897611E-4
3.600369851E0,-2.929474926E-3,1.198421582E-3,3.994738800E-4
3.602373289E0,-7.989477599E-4,1.198421582E-3,3.994738800E-4
3.604377403E0,1.331579522E-3,3.328948980E-3,1.464737463E-3
3.606382247E0,2.663159103E-4,4.394212738E-3,1.464737463E-3
3.608387820E0,-1.864211401E-3,2.263685223E-3,3.994738800E-4
3.610394070E0,-1.864211401E-3,3.328948980E-3,1.464737463E-3
3.612400945E0,-1.864211401E-3,3.328948980E-3,2.530001104E-3
3.614408393E0,2.663159103E-4,2.263685223E-3,1.464737463E-3
3.616416309E0,-1.864211401E-3,1.198421582E-3,1.464737463E-3
3.618424591E0,-7.989477599E-4,2.263685223E-3,3.994738800E-4
3.620433080E0,-7.989477599E-4,1.198421582E-3,1.464737463E-3
3.622442611E0,2.663159103E-4,3.328948980E-3,1.464737463E-3
3.624452143E0,-7.989477599E-4,2.263685223E-3,1.464737463E-3
3.626455736E0,-7.989477599E-4,2.263685223E-3,1.464737463E-3
3.628459382E0,-1.864211401E-3,2.263685223E-3,1.464737463E-3
3.630463132E0,2.663159103E-4,3.328948980E-3,1.464737463E-3
3.632467091E0,-7.989477599E-4,1.331579551E-4,3.994738800E-4
3.634471309E0,-7.989477599E-4,1.198421582E-3,3.994738800E-4
3.636475841E0,-7.989477599E-4,1.198421582E-3,-2.796316985E-3
3.638480684E0,2.663159103E-4,2.263685223E-3,-1.731053460E-3
3.640485841E0,-7.989477599E-4,2.263685223E-3,2.530001104E-3
3.642491361E0,-1.864211401E-3,2.263685223E-3,3.994738800E-4
3.644497195E0,2.663159103E-4,2.263685223E-3,3.994738800E-4
3.646503341E0,-7.989477599E-4,3.328948980E-3,1.464737463E-3
3.648509747E0,2.663159103E-4,1.331579551E-4,1.464737463E-3
3.650516361E0,-7.989477599E-4,2.263685223E-3,3.994738800E-4
3.652523132E0,2.396843163E-3,3.328948980E-3,3.994738800E-4
3.654530007E0,-7.989477599E-4,2.263685223E-3,3.994738800E-4
3.656536934E0,-7.989477599E-4,2.263685223E-3,3.994738800E-4
3.658541153E0,2.663159103E-4,1.331579551E-4,-6.657897611E-4
3.660545528E0,-7.989477599E-4,1.198421582E-3,-6.657897611E-4
3.662550111E0,-7.989477599E-4,1.198421582E-3,3.994738800E-4
3.664554955E0,-1.864211401E-3,2.263685223E-3,1.464737463E-3
3.666560059E0,2.663159103E-4,1.198421582E-3,3.994738800E-4
3.668565424E0,-7.989477599E-4,1.331579551E-4,1.464737463E-3
3.670571049E0,2.663159103E-4,1.198421582E-3,3.994738800E-4
3.672576934E0,2.663159103E-4,2.263685223E-3,3.994738800E-4
3.674583028E0,-7.989477599E-4,2.263685223E-3,3.994738800E-4
3.676589330E0,-1.864211401E-3,1.198421582E-3,3.994738800E-4
3.678595789E0,1.331579522E-3,1.198421582E-3,3.994738800E-4
3.680602351E0,2.663159103E-4,1.331579551E-4,3.994738800E-4
3.682608966E0,2.663159103E-4,1.331579551E-4,3.994738800E-4
3.684620997E0,-7.989477599E-4,-9.321057005E-4,-6.657897611E-4
3.686622299E0,-7.989477599E-4,1.198421582E-3,3.994738800E-4
3.688623757E0,-7.989477599E-4,1.331579551E-4,-1.731053460E-3
3.690625528E0,1.331579522E-3,1.331579551E-4,3.994738800E-4
3.692627716E0,-7.989477599E-4,-9.321057005E-4,3.994738800E-4
3.694630476E0,-7.989477599E-4,-9.321057005E-4,-6.657897611E-4
3.696633861E0,2.663159103E-4,-9.321057005E-4,1.464737463E-3
3.698638861E0,2.663159103E-4,-9.321057005E-4,3.994738800E-4
3.700645424E0,2.396843163E-3,-1.997369342E-3,3.994738800E-4
3.702652559E0,1.331579522E-3,-9.321057005E-4,-6.657897611E-4
3.704660164E0,2.663159103E-4,1.331579551E-4,-6.657897611E-4
3.706668132E0,2.663159103E-4,1.331579551E-4,3.994738800E-4
3.708676361E0,2.663159103E-4,-3.062632866E-3,1.464737463E-3
3.710684747E0,2.396843163E-3,-3.062632866E-3,-6.657897611E-4
3.712693184E0,1.331579522E-3,-3.062632866E-3,3.994738800E-4
3.714700059E0,-7.989477599E-4,-3.062632866E-3,3.994738800E-4
3.716705580E0,1.331579522E-3,-1.997369342E-3,-6.657897611E-4
3.718708393E0,2.663159103E-4,-9.321057005E-4,3.994738800E-4
3.720711414E0,1.331579522E-3,-1.997369342E-3,-6.657897611E-4
3.722714747E0,2.396843163E-3,-3.062632866E-3,3.994738800E-4
3.724718445E0,2.396843163E-3,-3.062632866E-3,3.994738800E-4
3.726722559E0,-7.989477599E-4,-4.127896391E-3,3.994738800E-4
3.728727143E0,-7.989477599E-4,-4.127896391E-3,-6.657897611E-4
3.730732195E0,-7.989477599E-4,-6.258423906E-3,2.530001104E-3
3.732737716E0,2.663159103E-4,-5.193160381E-3,3.994738800E-4
3.734743705E0,1.331579522E-3,-4.127896391E-3,1.464737463E-3
3.736750424E0,1.331579522E-3,-1.997369342E-3,3.994738800E-4
3.738757143E0,-7.989477599E-4,-4.127896391E-3,1.464737463E-3
3.740764174E0,2.663159103E-4,-6.258423906E-3,1.464737463E-3
3.742771466E0,2.396843163E-3,-6.258423906E-3,3.994738800E-4
3.744778914E0,2.663159103E-4,-5.193160381E-3,1.464737463E-3
3.746786414E0,2.663159103E-4,-5.193160381E-3,1.464737463E-3
3.748799330E0,2.396843163E-3,-5.193160381E-3,1.464737463E-3
3.750800007E0,1.331579522E-3,-6.258423906E-3,1.464737463E-3
3.752800841E0,3.462106921E-3,-4.127896391E-3,3.994738800E-4
3.754802039E0,2.396843163E-3,-4.127896391E-3,3.994738800E-4
3.756803757E0,2.396843163E-3,-4.127896391E-3,3.994738800E-4
3.758806101E0,1.331579522E-3,-3.062632866E-3,3.994738800E-4
3.760809174E0,3.462106921E-3,-4.127896391E-3,-6.657897611E-4
3.762813080E0,3.462106921E-3,-4.127896391E-3,-6.657897611E-4
3.764820632E0,2.396843163E-3,-3.062632866E-3,-1.731053460E-3
3.766828184E0,1.331579522E-3,-4.127896391E-3,1.464737463E-3
3.768836257E0,2.663159103E-4,-4.127896391E-3,-6.657897611E-4
3.770844747E0,-7.989477599E-4,-4.127896391E-3,-6.657897611E-4
3.772853549E0,3.462106921E-3,-3.062632866E-3,-6.657897611E-4
3.774862507E0,1.331579522E-3,-1.997369342E-3,3.994738800E-4
3.776868757E0,1.331579522E-3,-4.127896391E-3,-2.796316985E-3
3.778875111E0,3.462106921E-3,-9.321057005E-4,-1.731053460E-3
3.780881518E0,2.396843163E-3,-1.997369342E-3,-1.731053460E-3
3.782893341E0,1.331579522E-3,-3.062632866E-3,-6.657897611E-4
3.784894382E0,3.462106921E-3,-4.127896391E-3,-6.657897611E-4
3.786895580E0,2.396843163E-3,-1.997369342E-3,3.994738800E-4
3.788897091E0,3.462106921E-3,-1.997369342E-3,-6.657897611E-4
3.790899070E0,2.396843163E-3,-1.997369342E-3,3.994738800E-4
3.792901622E0,2.663159103E-4,-3.062632866E-3,3.994738800E-4
3.794904851E0,2.663159103E-4,-3.062632866E-3,3.994738800E-4
3.796908861E0,2.396843163E-3,-1.997369342E-3,-6.657897611E-4
3.798913653E0,-7.989477599E-4,-1.997369342E-3,3.994738800E-4
3.800919226E0,1.331579522E-3,-9.321057005E-4,1.464737463E-3
3.802925580E0,2.396843163E-3,-9.321057005E-4,-6.657897611E-4
3.804932611E0,1.331579522E-3,-3.062632866E-3,-6.657897611E-4
3.806940268E0,-7.989477599E-4,-3.062632866E-3,1.464737463E-3
3.808948445E0,-7.989477599E-4,-1.997369342E-3,3.994738800E-4
3.810956986E0,2.663159103E-4,-3.062632866E-3,3.994738800E-4
3.812966049E0,1.331579522E-3,-3.062632866E-3,3.994738800E-4
3.814970111E0,2.663159103E-4,1.331579551E-4,1.464737463E-3
3.816974486E0,-1.864211401E-3,1.198421582E-3,3.994738800E-4
3.818979226E0,2.663159103E-4,1.331579551E-4,3.994738800E-4
3.820984382E0,2.663159103E-4,-9.321057005E-4,3.994738800E-4
3.822989903E0,2.663159103E-4,-9.321057005E-4,-6.657897611E-4
3.824995789E0,-2.929474926E-3,1.331579551E-4,1.464737463E-3
3.827002039E0,-7.989477599E-4,1.198421582E-3,3.994738800E-4
3.829008601E0,2.663159103E-4,1.198421582E-3,3.994738800E-4
3.831015424E0,2.663159103E-4,-1.997369342E-3,3.994738800E-4
3.833022455E0,1.331579522E-3,1.331579551E-4,3.994738800E-4
3.835029591E0,1.331579522E-3,1.331579551E-4,1.464737463E-3
3.837036778E0,-7.989477599E-4,1.331579551E-4,3.994738800E-4
3.839041257E0,2.663159103E-4,1.198421582E-3,1.464737463E-3
3.841046205E0,2.663159103E-4,2.263685223E-3,2.530001104E-3
3.843053861E0,-7.989477599E-4,1.331579551E-4,3.994738800E-4
3.845060997E0,2.663159103E-4,1.331579551E-4,3.994738800E-4
3.847066570E0,-1.864211401E-3,1.198421582E-3,3.994738800E-4
3.849072091E0,-7.989477599E-4,1.198421582E-3,2.530001104E-3
3.851083028E0,-1.864211401E-3,2.263685223E-3,1.464737463E-3
3.853083236E0,1.331579522E-3,1.198421582E-3,3.994738800E-4
3.855083653E0,-7.989477599E-4,1.198421582E-3,3.994738800E-4
3.857084434E0,-7.989477599E-4,1.198421582E-3,-6.657897611E-4
3.859085789E0,2.663159103E-4,1.198421582E-3,-6.657897611E-4
3.861087872E0,2.663159103E-4,2.263685223E-3,1.464737463E-3
3.863090789E0,-7.989477599E-4,1.198421582E-3,1.464737463E-3
3.865094591E0,-7.989477599E-4,1.198421582E-3,-6.657897611E-4
3.867099330E0,-1.864211401E-3,3.328948980E-3,-6.657897611E-4
3.869105007E0,-7.989477599E-4,2.263685223E-3,1.464737463E-3
3.871111570E0,-7.989477599E-4,1.198421582E-3,1.464737463E-3
3.873118914E0,2.663159103E-4,1.198421582E-3,3.595264861E-3
3.875126934E0,-1.864211401E-3,2.263685223E-3,2.530001104E-3
3.877135528E0,-2.929474926E-3,2.263685223E-3,3.994738800E-4
3.879144539E0,-7.989477599E-4,1.198421582E-3,3.994738800E-4
3.881153809E0,-7.989477599E-4,1.198421582E-3,3.994738800E-4
3.883163184E0,-1.864211401E-3,1.198421582E-3,3.994738800E-4
3.885172091E0,-1.864211401E-3,2.263685223E-3,3.994738800E-4
3.887177611E0,-2.929474926E-3,2.263685223E-3,2.530001104E-3
3.889180424E0,-1.864211401E-3,4.394212738E-3,1.464737463E-3
3.891183445E0,-7.989477599E-4,2.263685223E-3,1.464737463E-3
3.893186778E0,-7.989477599E-4,1.198421582E-3,1.464737463E-3
3.895190476E0,-7.989477599E-4,1.198421582E-3,1.464737463E-3
3.897194591E0,-7.989477599E-4,4.394212738E-3,1.464737463E-3
3.899199174E0,-7.989477599E-4,3.328948980E-3,-6.657897611E-4
3.901204226E0,-7.989477599E-4,3.328948980E-3,1.464737463E-3
3.903209747E0,2.663159103E-4,1.198421582E-3,1.464737463E-3
3.905215736E0,-2.929474926E-3,2.263685223E-3,1.464737463E-3
3.907222143E0,-1.864211401E-3,3.328948980E-3,1.464737463E-3
3.909228549E0,-7.989477599E-4,1.331579551E-4,2.530001104E-3
3.911235320E0,-7.989477599E-4,1.198421582E-3,2.530001104E-3
3.913242351E0,-2.929474926E-3,2.263685223E-3,1.464737463E-3
3.915249591E0,-7.989477599E-4,2.263685223E-3,1.464737463E-3
3.917257299E0,-1.864211401E-3,2.263685223E-3,3.994738800E-4
3.919265007E0,2.663159103E-4,4.394212738E-3,3.994738800E-4
3.921272039E0,-1.864211401E-3,2.263685223E-3,1.464737463E-3
3.923277559E0,-2.929474926E-3,2.263685223E-3,1.464737463E-3
3.925288497E0,-7.989477599E-4,2.263685223E-3,3.994738800E-4
3.927288705E0,-7.989477599E-4,2.263685223E-3,3.994738800E-4
3.929289122E0,-1.864211401E-3,-9.321057005E-4,3.994738800E-4
3.931289903E0,-7.989477599E-4,1.198421582E-3,3.994738800E-4
3.933291257E0,1.331579522E-3,2.263685223E-3,1.464737463E-3
3.935293341E0,-7.989477599E-4,2.263685223E-3,3.994738800E-4
3.937296257E0,-2.929474926E-3,2.263685223E-3,2.530001104E-3
3.939300059E0,-7.989477599E-4,2.263685223E-3,3.994738800E-4
3.941304799E0,-7.989477599E-4,1.198421582E-3,1.464737463E-3
3.943310476E0,2.663159103E-4,2.263685223E-3,2.530001104E-3
3.945317039E0,2.663159103E-4,2.263685223E-3,1.464737463E-3
3.947324382E0,-7.989477599E-4,1.198421582E-3,3.994738800E-4
3.949332403E0,-1.864211401E-3,1.198421582E-3,3.994738800E-4
3.951340997E0,-7.989477599E-4,1.198421582E-3,3.994738800E-4
3.953350007E0,-2.929474926E-3,2.263685223E-3,3.994738800E-4
3.955360216E0,2.663159103E-4,2.263685223E-3,3.994738800E-4
3.957364382E0,2.663159103E-4,2.263685223E-3,1.464737463E-3
3.959368861E0,1.331579522E-3,1.198421582E-3,3.994738800E-4
3.961373705E0,2.663159103E-4,2.263685223E-3,3.994738800E-4
3.963378914E0,-7.989477599E-4,2.263685223E-3,1.464737463E-3
3.965384486E0,1.331579522E-3,1.198421582E-3,-6.657897611E-4
3.967390424E0,2.663159103E-4,2.263685223E-3,-6.657897611E-4
3.969396674E0,2.663159103E-4,2.263685223E-3,2.530001104E-3
3.971403236E0,2.663159103E-4,1.198421582E-3,3.994738800E-4
3.973410059E0,2.396843163E-3,1.198421582E-3,-6.657897611E-4
3.975417039E0,2.663159103E-4,1.331579551E-4,1.464737463E-3
3.977424122E0,2.663159103E-4,2.263685223E-3,1.464737463E-3
3.979431257E0,-7.989477599E-4,1.198421582E-3,1.464737463E-3
3.981435684E0,-7.989477599E-4,1.198421582E-3,1.464737463E-3
3.983440268E0,1.331579522E-3,1.198421582E-3,-6.657897611E-4
3.985445007E0,2.396843163E-3,1.331579551E-4,3.994738800E-4
3.987449955E0,2.663159103E-4,2.263685223E-3,3.994738800E-4
3.989455111E0,2.663159103E-4,-9.321057005E-4,2.530001104E-3
3.991460476E0,1.331579522E-3,-9.321057005E-4,1.464737463E-3
3.993466361E0,1.331579522E-3,1.331579551E-4,-6.657897611E-4
3.995469903E0,1.331579522E-3,1.331579551E-4,3.994738800E-4
3.997473809E0,1.331579522E-3,-1.997369342E-3,1.464737463E-3
3.999478132E0,2.396843163E-3,-3.062632866E-3,3.994738800E-4
4.001482924E0,1.331579522E-3,1.331579551E-4,-6.657897611E-4
4.003488184E0,1.331579522E-3,1.331579551E-4,1.464737463E-3
4.005493914E0,2.663159103E-4,-1.997369342E-3,-6.657897611E-4
4.007500059E0,2.663159103E-4,-9.321057005E-4,-6.657897611E-4
4.009506570E0,2.663159103E-4,-9.321057005E-4,3.994738800E-4
4.011513393E0,1.331579522E-3,-1.997369342E-3,1.464737463E-3
4.013520476E0,1.331579522E-3,-1.997369342E-3,1.464737463E-3
4.015527768E0,1.331579522E-3,1.331579551E-4,1.464737463E-3
4.017535164E0,2.663159103E-4,1.331579551E-4,1.464737463E-3
4.019542611E0,2.663159103E-4,-1.997369342E-3,2.530001104E-3
